MsgCounter,Roll,Pitch,Yaw,Roll_Setpoint,Pitch_Setpoint,Yaw_Setpoint,AccX,AccY,AccZ,GyroX,GyroY,GyroZ,Battery,Temperature,Longitude,Latitude
16,-25.06,-9.31,344.75,0.00,0.00,180.00,-0.461,0.123,0.859,-18.00,-2.62,-2.94,8.06,44.5,25856.0000000,57600.0000000
17,-25.12,-7.31,343.81,0.00,0.00,180.00,-0.431,0.143,0.869,-28.56,1.81,6.31,8.06,44.5,25856.0000000,57600.0000000
18,-25.62,-5.44,342.38,0.00,0.00,180.00,-0.456,0.156,0.866,-24.00,5.12,7.88,8.06,44.5,25856.0000000,57600.0000000
19,-26.56,-5.19,341.62,0.00,0.00,180.00,-0.528,0.165,0.926,-4.94,9.44,-4.69,8.06,30.0,25856.0000000,57600.0000000
20,-27.44,-5.88,343.75,0.00,0.00,180.00,-0.412,0.080,0.858,37.06,9.81,-31.25,8.06,30.0,25856.0000000,57600.0000000
21,-27.00,-7.62,349.81,0.00,0.00,180.00,-0.400,0.153,0.750,40.12,-23.50,-60.00,8.06,30.0,25856.0000000,57600.0000000
22,-25.69,-7.75,356.00,0.00,0.00,180.00,-0.413,0.044,1.017,29.38,-9.56,-29.56,8.06,30.0,25856.0000000,57600.0000000
23,-26.00,-9.19,358.81,0.00,0.00,180.00,-0.426,0.123,0.764,17.31,5.88,-18.88,8.06,30.0,25856.0000000,57600.0000000
24,-26.88,-8.69,0.75,0.00,0.00,180.00,-0.389,0.087,0.913,-1.62,5.50,-19.25,8.06,30.0,25856.0000000,57600.0000000
25,-27.25,-7.56,3.75,0.00,0.00,180.00,-0.394,0.050,0.878,10.75,2.00,-35.56,8.06,30.0,25856.0000000,57600.0000000
26,-26.56,-7.00,8.31,0.00,0.00,180.00,-0.457,0.033,0.923,19.38,-26.06,-41.50,8.06,30.0,25856.0000000,57600.0000000
27,-24.38,-6.94,12.12,0.00,0.00,180.00,-0.369,-0.013,0.899,12.06,-21.38,-24.00,8.06,30.0,25856.0000000,57600.0000000
28,-22.94,-6.50,13.44,0.00,0.00,180.00,-0.379,0.005,0.867,-7.56,-15.50,5.44,8.06,30.0,25856.0000000,57600.0000000
29,-21.69,-4.56,10.25,0.00,0.00,180.00,-0.355,0.007,0.934,-31.81,-8.69,50.38,8.06,30.0,25856.0000000,57600.0000000
30,-19.56,-3.81,3.25,0.00,0.00,180.00,-0.291,-0.003,0.951,-32.19,-24.19,76.69,8.06,30.0,25856.0000000,57600.0000000
31,-16.75,-3.00,355.62,0.00,0.00,180.00,-0.283,-0.036,0.947,-28.44,-19.44,76.88,8.06,30.0,25856.0000000,57600.0000000
32,-15.94,-3.44,346.44,0.00,0.00,180.00,-0.204,-0.042,0.970,-17.44,17.19,103.88,8.06,30.0,25856.0000000,57600.0000000
33,-17.88,-4.56,337.69,0.00,0.00,180.00,-0.188,0.060,0.938,-20.19,34.06,70.50,8.06,30.0,25856.0000000,57600.0000000
34,-20.06,-4.25,331.38,0.00,0.00,180.00,-0.345,-0.084,0.928,-14.69,12.31,52.75,8.06,30.0,25856.0000000,57600.0000000
35,-21.25,-4.06,326.94,0.00,0.00,180.00,-0.246,0.078,0.934,-31.50,28.88,21.00,8.06,30.0,25856.0000000,57600.0000000
36,-23.44,-3.81,322.31,0.00,0.00,180.00,-0.385,0.050,0.762,-9.50,15.69,62.25,8.06,30.0,25856.0000000,57600.0000000
37,-24.19,-5.62,317.06,0.00,0.00,180.00,-0.391,0.069,1.005,-5.12,11.69,56.69,8.06,30.0,25856.0000000,57600.0000000
38,-25.31,-7.62,310.69,0.00,0.00,180.00,-0.411,0.146,0.750,-19.00,22.56,60.75,8.06,30.0,25856.0000000,57600.0000000
39,-26.31,-7.56,305.19,0.00,0.00,180.00,-0.415,0.147,0.891,-23.12,10.00,43.81,8.06,30.0,25856.0000000,57600.0000000
40,-25.75,-8.69,300.56,0.00,0.00,180.00,-0.378,0.220,0.830,-4.94,-6.12,36.81,7.99,27.0,25856.0000000,57600.0000000
41,-25.44,-9.25,297.88,0.00,0.00,180.00,-0.374,0.163,0.842,-11.31,11.75,24.62,7.99,27.0,25856.0000000,57600.0000000
42,-26.44,-9.50,293.88,0.00,0.00,180.00,-0.440,0.163,0.981,-19.31,14.38,41.69,7.99,27.0,25856.0000000,57600.0000000
43,-26.88,-8.50,290.62,0.00,0.00,180.00,-0.438,0.124,0.866,-25.81,5.19,25.94,7.99,27.0,25856.0000000,57600.0000000
44,-26.00,-7.62,287.81,0.00,0.00,180.00,-0.404,0.164,0.818,-26.06,-10.94,27.00,7.99,27.0,25856.0000000,57600.0000000
45,-24.38,-6.38,284.94,0.00,0.00,180.00,-0.427,0.127,0.913,-17.69,-15.94,26.56,7.99,27.0,25856.0000000,57600.0000000
46,-23.00,-5.88,282.75,0.00,0.00,180.00,-0.390,0.072,0.927,-10.12,-5.38,21.31,7.99,27.0,25856.0000000,57600.0000000
47,-23.12,-5.81,280.31,0.00,0.00,180.00,-0.449,0.094,0.891,-17.88,10.81,25.31,7.99,27.0,25856.0000000,57600.0000000
48,-24.00,-5.62,277.50,0.00,0.00,180.00,-0.472,0.106,0.999,-8.00,15.38,26.50,7.99,27.0,25856.0000000,57600.0000000
49,-25.25,-6.19,276.56,0.00,0.00,180.00,-0.465,0.108,0.806,9.81,12.12,0.19,7.99,27.0,25856.0000000,57600.0000000
50,-26.25,-5.19,279.12,0.00,0.00,180.00,-0.359,0.043,0.878,-2.62,13.75,-33.12,7.99,27.0,25856.0000000,57600.0000000
51,-28.25,-4.44,282.19,0.00,0.00,180.00,-0.433,0.067,0.890,7.88,18.94,-41.19,7.99,27.0,25856.0000000,57600.0000000
52,-30.12,-4.19,286.56,0.00,0.00,180.00,-0.491,0.057,0.849,26.06,13.38,-28.56,7.99,27.0,25856.0000000,57600.0000000
53,-30.75,-4.75,290.88,0.00,0.00,180.00,-0.511,0.037,0.856,31.81,-2.31,-45.75,7.99,27.0,25856.0000000,57600.0000000
54,-30.31,-5.50,295.69,0.00,0.00,180.00,-0.472,0.013,0.872,30.38,-11.06,-27.75,7.99,27.0,25856.0000000,57600.0000000
55,-29.62,-5.94,298.69,0.00,0.00,180.00,-0.497,0.022,0.828,15.19,-4.12,-11.88,7.99,27.0,25856.0000000,57600.0000000
56,-29.69,-5.56,301.19,0.00,0.00,180.00,-0.506,0.023,0.830,4.94,4.44,-26.62,7.99,27.0,25856.0000000,57600.0000000
57,-30.50,-5.50,302.19,0.00,0.00,180.00,-0.495,0.022,0.845,2.50,12.31,0.12,7.99,27.0,25856.0000000,57600.0000000
58,-31.31,-5.62,301.44,0.00,0.00,180.00,-0.512,0.028,0.859,-9.75,5.12,9.25,7.99,27.0,25856.0000000,57600.0000000
59,-30.94,-5.75,299.50,0.00,0.00,180.00,-0.497,0.032,0.870,-13.75,-6.06,13.25,7.99,27.0,25856.0000000,57600.0000000
60,-30.00,-6.06,296.75,0.00,0.00,180.00,-0.467,0.097,0.820,-11.25,-5.75,27.56,8.02,42.5,25856.0000000,57600.0000000
61,-29.62,-5.62,294.81,0.00,0.00,180.00,-0.477,0.058,0.878,-16.75,-0.38,20.06,8.02,42.5,25856.0000000,57600.0000000
62,-29.56,-5.19,292.44,0.00,0.00,180.00,-0.473,0.084,0.852,-17.38,2.12,16.19,8.02,42.5,25856.0000000,57600.0000000
63,-29.50,-4.88,289.81,0.00,0.00,180.00,-0.486,0.051,0.829,-15.44,-0.88,24.81,8.02,42.5,25856.0000000,57600.0000000
64,-29.19,-4.69,287.25,0.00,0.00,180.00,-0.526,0.121,0.910,-9.12,2.88,32.50,8.02,42.5,25856.0000000,57600.0000000
65,-29.38,-4.25,285.94,0.00,0.00,180.00,-0.499,0.081,0.853,-13.19,6.38,-8.62,8.02,42.5,25856.0000000,57600.0000000
66,-29.75,-3.75,285.75,0.00,0.00,180.00,-0.490,0.052,0.835,1.44,5.62,5.94,8.02,42.5,25856.0000000,57600.0000000
67,-30.12,-3.81,285.88,0.00,0.00,180.00,-0.489,0.049,0.847,2.50,2.31,-0.06,8.02,42.5,25856.0000000,57600.0000000
68,-30.38,-4.12,286.25,0.00,0.00,180.00,-0.495,0.050,0.844,6.00,4.62,-5.06,8.02,42.5,25856.0000000,57600.0000000
69,-30.88,-4.31,287.62,0.00,0.00,180.00,-0.536,0.042,0.834,9.75,3.31,-12.50,8.02,42.5,25856.0000000,57600.0000000
70,-30.62,-5.31,288.38,0.00,0.00,180.00,-0.509,0.096,0.851,8.06,-4.12,-17.06,8.02,42.5,25856.0000000,57600.0000000
71,-30.25,-5.88,289.31,0.00,0.00,180.00,-0.472,0.062,0.888,13.62,-7.38,5.06,8.02,42.5,25856.0000000,57600.0000000
72,-29.62,-6.38,290.12,0.00,0.00,180.00,-0.472,0.094,0.773,2.25,1.81,-7.38,8.02,42.5,25856.0000000,57600.0000000
73,-30.00,-5.81,291.44,0.00,0.00,180.00,-0.484,0.063,0.863,4.38,0.75,-12.81,8.02,42.5,25856.0000000,57600.0000000
74,-30.12,-5.62,292.62,0.00,0.00,180.00,-0.483,0.060,0.780,10.19,-1.50,-5.56,8.02,42.5,25856.0000000,57600.0000000
75,-29.06,-5.38,294.06,0.00,0.00,180.00,-0.447,-0.010,0.872,3.94,-18.31,-19.38,8.02,42.5,25856.0000000,57600.0000000
76,-27.00,-5.38,295.31,0.00,0.00,180.00,-0.440,0.115,0.949,2.81,-28.81,-9.44,8.02,42.5,25856.0000000,57600.0000000
77,-24.38,-4.12,297.25,0.00,0.00,180.00,-0.397,0.087,0.904,-7.00,-24.69,-17.50,8.02,42.5,25856.0000000,57600.0000000
78,-22.62,-1.25,299.25,0.00,0.00,180.00,-0.372,0.032,0.897,-27.75,-17.00,-33.50,8.02,42.5,25856.0000000,57600.0000000
79,-21.69,3.56,301.56,0.00,0.00,180.00,-0.303,-0.142,0.930,-33.94,3.56,-14.50,8.02,42.5,25856.0000000,57600.0000000
80,-23.62,6.31,301.00,0.00,0.00,180.00,-0.374,-0.092,0.875,-30.81,23.62,11.19,8.09,30.0,25856.0000000,57600.0000000
81,-26.56,10.06,300.19,0.00,0.00,180.00,-0.474,-0.105,0.836,-29.44,8.19,-27.69,8.09,30.0,25856.0000000,57600.0000000
82,-26.19,12.50,298.88,0.00,0.00,180.00,-0.370,-0.313,0.880,-4.44,-1.56,39.12,8.09,30.0,25856.0000000,57600.0000000
83,-25.62,11.19,298.94,0.00,0.00,180.00,-0.429,-0.197,0.937,31.00,-19.62,-2.00,8.09,30.0,25856.0000000,57600.0000000
84,-22.19,5.38,300.06,0.00,0.00,180.00,-0.380,-0.006,0.915,66.31,-38.75,7.44,8.09,30.0,25856.0000000,57600.0000000
85,-19.38,-0.38,299.38,0.00,0.00,180.00,-0.355,-0.071,0.888,59.25,-29.44,31.38,8.09,30.0,25856.0000000,57600.0000000
86,-16.06,-7.06,297.62,0.00,0.00,180.00,-0.340,0.122,0.950,49.19,-31.94,36.81,8.09,30.0,25856.0000000,57600.0000000
87,-12.25,-11.44,295.56,0.00,0.00,180.00,-0.233,0.128,0.879,25.38,-21.25,37.25,8.09,30.0,25856.0000000,57600.0000000
88,-10.81,-13.25,290.38,0.00,0.00,180.00,-0.351,0.117,0.919,7.00,-11.69,38.69,8.09,30.0,25856.0000000,57600.0000000
89,-5.69,-14.75,285.69,0.00,0.00,180.00,-0.181,0.142,0.876,11.50,-62.62,46.50,8.09,30.0,25856.0000000,57600.0000000
91,0.44,-11.06,276.94,0.00,0.00,180.00,0.112,0.187,0.938,-40.56,38.25,41.06,8.09,30.0,25856.0000000,57600.0000000
94,-18.00,5.69,273.56,0.00,0.00,180.00,-0.236,0.037,0.908,-81.06,53.81,-41.50,8.09,30.0,25856.0000000,57600.0000000
95,-20.81,13.75,277.75,0.00,0.00,180.00,-0.296,-0.228,0.898,-42.50,27.50,-51.38,8.09,30.0,25856.0000000,57600.0000000
96,-18.50,15.25,284.75,0.00,0.00,180.00,-0.451,-0.147,0.940,45.38,-36.19,-83.12,8.09,30.0,25856.0000000,57600.0000000
97,-11.19,11.00,291.25,0.00,0.00,180.00,-0.231,-0.224,0.960,61.62,-69.62,-51.81,8.09,30.0,25856.0000000,57600.0000000
98,-5.31,4.75,295.38,0.00,0.00,180.00,-0.102,-0.356,1.058,83.44,-42.25,-35.94,8.09,30.0,25856.0000000,57600.0000000
99,-2.69,-5.56,299.38,0.00,0.00,180.00,-0.092,-0.112,1.028,124.75,-14.69,-36.19,8.09,30.0,25856.0000000,57600.0000000
100,-3.44,-15.81,302.44,0.00,0.00,180.00,-0.107,0.206,0.900,83.38,15.75,-19.19,8.09,30.0,25856.0000000,57600.0000000
101,-5.88,-20.81,301.25,0.00,0.00,180.00,-0.125,0.287,0.870,31.75,35.69,22.00,8.08,28.0,25856.0000000,57600.0000000
106,-20.19,4.31,267.31,0.00,0.00,180.00,-0.299,-0.079,0.982,-15.19,-16.06,-8.50,8.08,28.0,25856.0000000,57600.0000000
108,-11.56,1.25,272.00,0.00,0.00,180.00,-0.194,0.028,0.901,33.25,-41.25,-31.56,8.08,28.0,25856.0000000,57600.0000000
109,-8.31,-0.62,275.25,0.00,0.00,180.00,-0.181,0.035,0.957,18.19,-28.94,-27.44,8.08,28.0,25856.0000000,57600.0000000
110,-6.56,-2.12,278.75,0.00,0.00,180.00,-0.153,0.078,0.956,26.81,-16.19,-44.50,8.08,28.0,25856.0000000,57600.0000000
111,-5.38,-3.75,283.06,0.00,0.00,180.00,-0.149,0.149,0.958,9.44,-10.62,-34.50,8.08,28.0,25856.0000000,57600.0000000
112,-5.00,-4.19,286.19,0.00,0.00,180.00,-0.194,0.045,0.969,8.38,-10.50,-34.50,8.08,28.0,25856.0000000,57600.0000000
114,-3.75,-8.44,294.25,0.00,0.00,180.00,-0.133,0.273,0.900,26.12,-0.12,-55.44,8.08,28.0,25856.0000000,57600.0000000
115,-5.31,-9.44,297.94,0.00,0.00,180.00,-0.097,0.236,0.978,7.38,17.81,-34.00,8.08,28.0,25856.0000000,57600.0000000
116,-8.50,-10.25,300.31,0.00,0.00,180.00,-0.167,0.241,1.021,15.56,35.31,-31.75,8.08,28.0,25856.0000000,57600.0000000
117,-10.81,-11.06,301.62,0.00,0.00,180.00,-0.166,0.106,0.987,10.69,10.31,-4.56,8.08,28.0,25856.0000000,57600.0000000
118,-10.75,-12.50,303.50,0.00,0.00,180.00,-0.117,0.128,0.878,13.81,-9.62,-6.00,8.08,28.0,25856.0000000,57600.0000000
119,-10.38,-13.31,304.31,0.00,0.00,180.00,-0.303,0.299,1.013,-3.69,-10.25,2.25,8.08,28.0,25856.0000000,57600.0000000
121,-7.00,-12.38,305.81,0.00,0.00,180.00,-0.234,0.244,0.958,1.88,0.25,-30.69,8.04,42.0,25856.0000000,57600.0000000
123,-8.81,-10.94,309.69,0.00,0.00,180.00,-0.223,0.155,0.991,12.12,10.38,-25.25,8.04,42.0,25856.0000000,57600.0000000
125,-12.62,-11.75,310.94,0.00,0.00,180.00,-0.130,0.057,0.958,-15.69,8.50,13.44,8.04,42.0,25856.0000000,57600.0000000
126,-13.06,-11.44,310.50,0.00,0.00,180.00,-0.038,0.097,0.843,7.62,15.56,2.50,8.04,42.0,25856.0000000,57600.0000000
128,-12.88,-10.31,303.31,0.00,0.00,180.00,-0.107,0.092,0.889,-1.38,4.44,40.06,8.04,42.0,25856.0000000,57600.0000000
129,-12.12,-12.06,300.06,0.00,0.00,180.00,-0.160,0.273,0.905,9.19,-5.88,33.81,8.04,42.0,25856.0000000,57600.0000000
130,-12.38,-12.81,294.75,0.00,0.00,180.00,-0.123,0.255,0.907,-16.50,38.12,74.94,8.04,42.0,25856.0000000,57600.0000000
131,-15.44,-13.44,284.94,0.00,0.00,180.00,-0.329,0.263,0.979,-23.75,55.62,95.94,8.04,42.0,25856.0000000,57600.0000000
132,-16.00,-13.06,274.88,0.00,0.00,180.00,-0.245,0.029,0.833,-25.12,5.69,78.25,8.04,42.0,25856.0000000,57600.0000000
136,-9.38,-3.25,239.12,0.00,0.00,180.00,-0.186,-0.010,0.934,-9.19,0.44,74.44,8.04,42.0,25856.0000000,57600.0000000
137,-9.81,-2.88,230.81,0.00,0.00,180.00,-0.216,0.072,0.934,-35.88,7.62,107.12,8.04,42.0,25856.0000000,57600.0000000
138,-9.62,-2.00,221.25,0.00,0.00,180.00,-0.108,0.019,0.875,-13.50,6.31,76.06,8.04,42.0,25856.0000000,57600.0000000
140,-12.25,-1.00,207.38,0.00,0.00,180.00,-0.194,0.044,0.928,13.56,1.44,38.19,8.04,42.0,25856.0000000,57600.0000000
141,-12.75,-2.94,203.81,0.00,0.00,180.00,-0.281,0.161,0.976,1.69,14.56,54.94,8.12,28.5,25856.0000000,57600.0000000
142,-13.06,-3.31,200.38,0.00,0.00,180.00,-0.194,0.132,0.906,-4.69,-0.19,15.50,8.12,28.5,25856.0000000,57600.0000000
143,-13.19,-3.25,199.62,0.00,0.00,180.00,-0.212,0.048,0.933,5.69,1.81,-10.38,8.12,28.5,25856.0000000,57600.0000000
145,-13.69,-5.00,206.75,0.00,0.00,180.00,-0.292,0.088,0.932,21.44,-0.19,-49.94,8.12,28.5,25856.0000000,57600.0000000
146,-13.81,-6.00,211.62,0.00,0.00,180.00,-0.264,0.104,0.930,20.81,-7.00,-50.94,8.12,28.5,25856.0000000,57600.0000000
147,-14.38,-6.44,217.38,0.00,0.00,180.00,-0.251,0.130,0.897,14.25,5.50,-54.69,8.12,28.5,25856.0000000,57600.0000000
148,-15.56,-6.50,223.88,0.00,0.00,180.00,-0.304,0.154,0.903,23.56,-1.31,-85.00,8.12,28.5,25856.0000000,57600.0000000
149,-15.88,-6.12,233.31,0.00,0.00,180.00,-0.311,0.120,0.929,23.75,-18.38,-109.12,8.12,28.5,25856.0000000,57600.0000000
150,-15.00,-6.06,242.88,0.00,0.00,180.00,-0.250,0.019,0.964,36.00,-20.44,-105.44,8.12,28.5,25856.0000000,57600.0000000
151,-13.38,-7.50,254.56,0.00,0.00,180.00,-0.237,0.077,0.954,48.38,-32.00,-104.94,8.12,28.5,25856.0000000,57600.0000000
153,-10.19,-11.00,274.44,0.00,0.00,180.00,-0.132,0.208,0.919,12.31,-12.88,-62.38,8.12,28.5,25856.0000000,57600.0000000
154,-11.00,-10.44,279.88,0.00,0.00,180.00,-0.162,0.137,0.967,1.19,4.50,-46.69,8.12,28.5,25856.0000000,57600.0000000
155,-12.31,-9.81,282.94,0.00,0.00,180.00,-0.195,0.124,0.944,2.44,9.62,-21.75,8.12,28.5,25856.0000000,57600.0000000
156,-13.75,-9.25,282.69,0.00,0.00,180.00,-0.219,0.143,0.881,-17.62,22.69,25.12,8.12,28.5,25856.0000000,57600.0000000
162,-31.88,2.75,239.94,0.00,0.00,180.00,-0.533,-0.087,0.806,-47.50,29.12,54.31,8.12,28.5,25856.0000000,57600.0000000
163,-34.06,4.06,234.44,0.00,0.00,180.00,-0.567,-0.083,0.803,-29.81,9.50,30.44,8.12,28.5,25856.0000000,57600.0000000
164,-33.69,5.19,232.31,0.00,0.00,180.00,-0.553,-0.126,0.824,-7.75,-17.06,-3.94,8.12,28.5,25856.0000000,57600.0000000
165,-30.81,5.62,233.75,0.00,0.00,180.00,-0.480,-0.183,0.862,18.88,-46.12,-37.19,8.12,28.5,25856.0000000,57600.0000000
178,-10.25,-3.56,263.06,0.00,0.00,180.00,-0.078,0.061,0.945,-21.31,-19.25,17.19,8.12,28.5,25856.0000000,57600.0000000
179,-9.06,-2.12,263.06,0.00,0.00,180.00,-0.032,0.107,0.910,-18.88,6.62,-17.12,8.12,28.5,25856.0000000,57600.0000000
180,-11.88,0.06,264.56,0.00,0.00,180.00,-0.132,0.021,0.974,-23.38,47.81,-19.19,8.12,28.5,25856.0000000,57600.0000000
181,-17.62,2.00,264.62,0.00,0.00,180.00,-0.534,-0.312,1.051,-12.62,68.38,-20.81,8.12,28.5,25856.0000000,57600.0000000
183,-19.44,-0.75,272.00,0.00,0.00,180.00,-0.422,0.019,0.850,4.81,53.56,-37.38,8.06,42.5,25856.0000000,57600.0000000
184,-20.69,1.06,275.25,0.00,0.00,180.00,-0.206,-0.055,0.911,-31.75,-14.88,-35.00,8.06,42.5,25856.0000000,57600.0000000
185,-20.25,2.62,277.88,0.00,0.00,180.00,-0.394,-0.050,0.902,-2.44,-15.25,-29.00,8.06,42.5,25856.0000000,57600.0000000
186,-17.75,3.44,282.50,0.00,0.00,180.00,-0.223,0.026,0.894,18.62,-32.81,-59.62,8.06,42.5,25856.0000000,57600.0000000
208,21.56,-2.44,285.00,0.00,0.00,180.00,0.349,0.106,0.872,10.06,-31.25,-15.75,8.06,42.5,25856.0000000,57600.0000000
209,23.62,-2.94,286.38,0.00,0.00,180.00,0.429,0.115,0.834,-8.44,-6.88,-0.38,8.06,42.5,25856.0000000,57600.0000000
210,22.44,-1.44,285.62,0.00,0.00,180.00,0.365,0.082,0.910,-16.56,25.81,3.31,8.06,42.5,25856.0000000,57600.0000000
211,21.00,0.06,285.94,0.00,0.00,180.00,0.368,-0.023,0.943,-10.25,8.81,-11.38,8.06,42.5,25856.0000000,57600.0000000
212,20.38,0.19,286.56,0.00,0.00,180.00,0.380,0.027,0.885,-3.88,7.94,-2.69,8.06,42.5,25856.0000000,57600.0000000
213,18.75,2.25,285.75,0.00,0.00,180.00,0.237,0.111,0.860,-35.94,20.38,28.12,8.06,42.5,25856.0000000,57600.0000000
214,16.81,9.56,281.44,0.00,0.00,180.00,0.243,-0.224,0.887,-65.00,11.38,55.56,8.06,42.5,25856.0000000,57600.0000000
215,15.50,14.94,277.88,0.00,0.00,180.00,0.255,-0.282,0.893,-24.94,-1.62,26.94,8.06,42.5,25856.0000000,57600.0000000
216,14.12,18.12,274.38,0.00,0.00,180.00,0.232,-0.257,0.877,-28.94,8.62,51.94,8.06,42.5,25856.0000000,57600.0000000
217,9.62,23.06,268.31,0.00,0.00,180.00,0.172,-0.366,0.861,-49.69,33.88,80.06,8.06,42.5,25856.0000000,57600.0000000
218,4.50,27.50,262.69,0.00,0.00,180.00,0.094,-0.481,0.832,-30.44,26.00,58.31,8.06,42.5,25856.0000000,57600.0000000
219,1.00,29.81,259.38,0.00,0.00,180.00,0.014,-0.358,0.807,-22.69,18.50,51.44,8.06,42.5,25856.0000000,57600.0000000
220,-2.81,32.25,255.56,0.00,0.00,180.00,-0.061,-0.433,0.791,-28.19,21.50,42.88,8.06,42.5,25856.0000000,57600.0000000
221,-6.50,34.56,251.38,0.00,0.00,180.00,-0.091,-0.512,0.737,-20.19,12.25,34.12,8.06,42.5,25856.0000000,57600.0000000
222,-10.31,36.38,247.62,0.00,0.00,180.00,-0.166,-0.554,0.730,-26.12,20.12,37.38,8.06,42.5,25856.0000000,57600.0000000
223,-12.31,38.00,246.19,0.00,0.00,180.00,-0.234,-0.700,0.767,-3.75,4.56,-12.12,8.06,29.0,25856.0000000,57600.0000000
224,-9.31,37.06,249.50,0.00,0.00,180.00,-0.208,-0.576,0.740,23.31,-15.56,-45.56,8.06,29.0,25856.0000000,57600.0000000
225,-6.56,35.56,251.94,0.00,0.00,180.00,-0.139,-0.679,0.798,20.38,-14.31,-27.06,8.06,29.0,25856.0000000,57600.0000000
226,-2.31,32.00,256.50,0.00,0.00,180.00,-0.100,-0.700,0.826,64.62,-27.81,-75.75,8.06,29.0,25856.0000000,57600.0000000
227,5.25,22.44,265.94,0.00,0.00,180.00,0.015,-0.545,0.815,120.62,-38.88,-128.62,8.06,29.0,25856.0000000,57600.0000000
228,11.44,8.94,275.62,0.00,0.00,180.00,0.135,-0.053,0.812,110.50,-22.44,-88.31,8.06,29.0,25856.0000000,57600.0000000
229,12.94,-0.62,280.75,0.00,0.00,180.00,0.193,0.054,0.859,69.44,-3.06,-52.31,8.06,29.0,25856.0000000,57600.0000000
230,12.62,-7.88,285.31,0.00,0.00,180.00,0.168,0.173,0.914,61.81,-1.88,-49.31,8.06,29.0,25856.0000000,57600.0000000
231,12.25,-14.44,290.19,0.00,0.00,180.00,0.157,0.337,0.863,51.88,-7.12,-51.31,8.06,29.0,25856.0000000,57600.0000000
234,7.81,-10.62,287.19,0.00,0.00,180.00,0.095,0.410,0.808,-123.75,55.19,84.00,8.06,29.0,25856.0000000,57600.0000000
238,-1.94,23.25,277.38,0.00,0.00,180.00,-0.071,-0.489,0.953,-31.88,-1.00,-2.69,8.06,29.0,25856.0000000,57600.0000000
242,11.75,-7.19,300.25,0.00,0.00,180.00,0.148,0.121,0.841,93.88,-29.00,-67.69,8.06,29.0,25856.0000000,57600.0000000
244,9.88,-14.00,300.94,0.00,0.00,180.00,0.138,0.278,0.912,-24.06,27.75,44.88,8.07,41.5,25856.0000000,57600.0000000
245,9.06,-9.88,296.75,0.00,0.00,180.00,0.181,0.189,0.901,-40.31,15.50,50.94,8.07,41.5,25856.0000000,57600.0000000
247,7.88,-5.00,290.50,0.00,0.00,180.00,0.120,0.068,1.002,13.00,2.50,7.19,8.07,41.5,25856.0000000,57600.0000000
250,6.19,-17.62,292.88,0.00,0.00,180.00,0.110,0.337,0.931,38.12,23.31,-3.06,8.07,41.5,25856.0000000,57600.0000000
251,3.88,-19.38,291.25,0.00,0.00,180.00,0.001,0.438,0.911,0.88,34.00,33.50,8.07,41.5,25856.0000000,57600.0000000
253,2.06,-16.00,279.06,0.00,0.00,180.00,0.065,0.258,0.872,-12.06,27.00,55.19,8.07,41.5,25856.0000000,57600.0000000
255,0.44,-12.69,268.19,0.00,0.00,180.00,-0.088,0.353,0.933,-46.69,19.44,71.06,8.07,41.5,25856.0000000,57600.0000000
0,0.94,-5.00,259.94,0.00,0.00,180.00,-0.198,0.142,0.926,-109.12,-12.25,103.06,8.07,41.5,25856.0000000,57600.0000000
1,3.25,7.88,249.00,0.00,0.00,180.00,0.003,-0.148,0.805,-137.19,-29.12,117.75,8.07,41.5,25856.0000000,57600.0000000
2,2.44,18.25,241.75,0.00,0.00,180.00,0.093,-0.388,0.945,-95.75,-0.56,60.56,8.07,41.5,25856.0000000,57600.0000000
3,-0.38,23.25,239.44,0.00,0.00,180.00,0.045,-0.355,0.875,-19.81,34.31,-12.31,8.07,41.5,25856.0000000,57600.0000000
4,-3.44,23.75,242.62,0.00,0.00,180.00,-0.086,-0.354,1.018,9.19,40.69,-33.06,8.07,41.5,25856.0000000,57600.0000000
5,-3.56,21.19,248.94,0.00,0.00,180.00,-0.043,-0.326,0.948,47.81,23.69,-63.38,8.07,41.5,25856.0000000,57600.0000000
6,-2.69,15.62,257.44,0.00,0.00,180.00,-0.067,-0.189,0.942,71.25,18.50,-80.62,8.07,41.5,25856.0000000,57600.0000000
7,-2.06,8.44,266.06,0.00,0.00,180.00,-0.091,-0.172,0.983,90.31,-2.12,-104.81,8.10,27.0,25856.0000000,57600.0000000
9,0.31,-11.00,285.31,0.00,0.00,180.00,0.036,0.156,0.881,80.75,-18.06,-76.00,8.10,27.0,25856.0000000,57600.0000000
15,-1.12,-18.69,284.56,0.00,0.00,180.00,-0.021,0.424,0.832,-60.75,15.75,53.12,8.10,27.0,25856.0000000,57600.0000000
21,5.38,-4.00,273.75,0.00,0.00,180.00,-0.016,-0.044,0.998,-4.62,-4.06,33.88,8.10,27.0,25856.0000000,57600.0000000
22,5.81,-3.44,272.31,0.00,0.00,180.00,0.057,0.045,0.979,-1.88,-4.44,-5.31,8.10,27.0,25856.0000000,57600.0000000
23,5.75,-3.25,273.19,0.00,0.00,180.00,0.112,0.202,0.883,-6.81,6.06,-15.69,8.10,27.0,25856.0000000,57600.0000000
24,3.62,-2.19,275.19,0.00,0.00,180.00,-0.012,0.263,0.992,-17.75,36.81,-9.19,8.10,27.0,25856.0000000,57600.0000000
25,0.81,-1.00,276.31,0.00,0.00,180.00,-0.073,0.178,1.062,-5.06,19.19,-24.38,8.10,27.0,25856.0000000,57600.0000000
26,-0.50,-1.75,279.62,0.00,0.00,180.00,-0.097,0.150,0.930,15.81,11.94,-40.62,8.10,27.0,25856.0000000,57600.0000000
27,-1.50,-3.75,283.75,0.00,0.00,180.00,-0.141,0.166,0.976,14.94,-0.69,-35.50,8.10,27.0,25856.0000000,57600.0000000
29,-0.12,-3.00,281.94,0.00,0.00,180.00,0.055,-0.037,0.933,-14.44,-2.25,13.31,8.12,30.0,25856.0000000,57600.0000000
32,-6.06,0.62,284.19,0.00,0.00,180.00,-0.013,-0.016,0.945,22.31,42.62,-27.75,8.12,30.0,25856.0000000,57600.0000000
33,-10.12,-1.56,287.88,0.00,0.00,180.00,-0.155,0.155,1.027,23.38,41.62,-29.19,8.12,30.0,25856.0000000,57600.0000000
34,-13.75,-2.62,291.56,0.00,0.00,180.00,-0.188,0.063,0.934,22.94,33.19,-58.69,8.12,30.0,25856.0000000,57600.0000000
39,-23.81,-0.25,319.88,0.00,0.00,180.00,-0.379,0.081,0.952,30.75,-1.44,-46.56,8.12,30.0,25856.0000000,57600.0000000
41,-24.00,-0.62,323.88,0.00,0.00,180.00,-0.413,0.045,0.921,12.62,-1.00,-18.44,8.12,30.0,25856.0000000,57600.0000000
44,-21.06,-2.50,327.75,0.00,0.00,180.00,-0.420,0.056,0.853,2.19,-19.31,14.38,8.12,30.0,25856.0000000,57600.0000000
46,-19.62,-2.44,329.44,0.00,0.00,180.00,-0.364,0.055,0.947,12.00,3.19,-33.00,8.12,30.0,25856.0000000,57600.0000000
47,-20.06,-2.75,331.25,0.00,0.00,180.00,-0.364,0.046,0.880,6.50,2.62,-11.81,8.12,30.0,25856.0000000,57600.0000000
48,-20.50,-2.75,332.06,0.00,0.00,180.00,-0.388,0.041,0.869,3.12,0.81,-9.50,8.00,46.0,25856.0000000,57600.0000000
50,-20.56,-2.69,335.88,0.00,0.00,180.00,-0.367,0.021,0.847,7.75,15.06,-30.38,8.00,46.0,25856.0000000,57600.0000000
52,-21.81,-2.56,338.94,0.00,0.00,180.00,-0.440,-0.016,0.872,2.38,-6.31,1.81,8.00,46.0,25856.0000000,57600.0000000
55,-21.56,-3.06,338.62,0.00,0.00,180.00,-0.314,0.046,0.838,-16.38,7.06,-33.06,8.00,46.0,25856.0000000,57600.0000000
56,-21.75,-2.00,340.19,0.00,0.00,180.00,-0.403,0.037,0.939,6.62,-4.88,-9.88,8.00,46.0,25856.0000000,57600.0000000
57,-21.12,-2.62,341.12,0.00,0.00,180.00,-0.369,0.023,0.902,9.56,-8.62,-9.62,8.00,46.0,25856.0000000,57600.0000000
58,-20.19,-3.56,342.25,0.00,0.00,180.00,-0.347,0.065,0.922,9.25,-8.62,-9.25,8.00,46.0,25856.0000000,57600.0000000
59,-20.12,-3.06,342.25,0.00,0.00,180.00,-0.368,0.037,0.881,-12.62,2.50,9.81,8.00,46.0,25856.0000000,57600.0000000
60,-20.50,-1.69,340.75,0.00,0.00,180.00,-0.339,0.077,0.881,-22.94,7.31,6.06,8.00,46.0,25856.0000000,57600.0000000
61,-21.25,-0.88,339.94,0.00,0.00,180.00,-0.447,0.005,0.945,1.81,4.25,14.75,8.00,46.0,25856.0000000,57600.0000000
62,-20.81,-2.19,338.06,0.00,0.00,180.00,-0.360,0.056,0.848,4.94,-8.31,18.81,8.00,46.0,25856.0000000,57600.0000000
63,-20.19,-2.81,336.50,0.00,0.00,180.00,-0.339,0.035,0.869,-3.88,-3.31,19.38,8.00,46.0,25856.0000000,57600.0000000
66,-16.31,-0.25,337.00,0.00,0.00,180.00,-0.302,-0.060,1.010,3.44,-9.69,-1.62,8.00,46.0,25856.0000000,57600.0000000
73,-18.62,-5.00,319.19,0.00,0.00,180.00,-0.312,0.082,0.939,6.19,-7.06,12.06,8.00,46.0,25856.0000000,57600.0000000
74,-18.69,-5.25,317.62,0.00,0.00,180.00,-0.309,0.089,0.912,-3.69,-0.44,17.81,8.00,46.0,25856.0000000,57600.0000000
75,-18.50,-5.44,315.25,0.00,0.00,180.00,-0.327,0.042,0.953,-6.69,-1.56,23.19,8.00,46.0,25856.0000000,57600.0000000
76,-17.12,-6.31,312.75,0.00,0.00,180.00,-0.310,0.141,0.994,-0.81,-14.12,12.12,8.00,46.0,25856.0000000,57600.0000000
77,-17.31,-6.31,310.06,0.00,0.00,180.00,-0.225,-0.031,0.745,-8.69,18.50,37.56,8.00,46.0,25856.0000000,57600.0000000
79,-15.00,-8.56,302.12,0.00,0.00,180.00,-0.183,0.145,0.951,7.75,-8.12,35.69,8.00,46.0,25856.0000000,57600.0000000
81,-16.06,-9.06,298.88,0.00,0.00,180.00,-0.253,0.255,0.856,-13.50,23.12,7.50,8.00,46.0,25856.0000000,57600.0000000
82,-16.44,-6.75,297.81,0.00,0.00,180.00,-0.311,0.058,1.062,-24.75,-4.94,11.62,8.00,46.0,25856.0000000,57600.0000000
83,-13.94,-7.25,296.88,0.00,0.00,180.00,-0.206,0.160,0.871,17.69,-21.19,41.06,8.00,46.0,25856.0000000,57600.0000000
84,-13.12,-8.56,295.06,0.00,0.00,180.00,-0.300,0.352,1.024,-5.69,6.62,6.88,8.00,46.0,25856.0000000,57600.0000000
85,-13.44,-8.25,294.19,0.00,0.00,180.00,-0.202,0.088,1.001,6.12,7.88,9.06,8.00,46.0,25856.0000000,57600.0000000
86,-14.38,-9.94,293.19,0.00,0.00,180.00,-0.182,0.274,0.768,8.06,12.19,10.94,8.00,46.0,25856.0000000,57600.0000000
87,-15.56,-9.44,294.06,0.00,0.00,180.00,-0.267,0.151,0.995,-2.25,5.56,-25.88,8.00,46.0,25856.0000000,57600.0000000
88,-16.00,-9.06,295.12,0.00,0.00,180.00,-0.282,0.200,0.842,-4.56,2.06,-1.75,8.00,46.0,25856.0000000,57600.0000000
89,-16.38,-8.81,295.94,0.00,0.00,180.00,-0.213,0.187,0.995,9.50,-1.38,-19.25,8.10,29.5,25856.0000000,57600.0000000
90,-15.94,-10.06,299.75,0.00,0.00,180.00,-0.285,0.217,0.839,26.69,-28.88,-37.81,8.10,29.5,25856.0000000,57600.0000000
91,-13.00,-10.75,303.44,0.00,0.00,180.00,-0.207,0.194,0.888,16.94,-38.94,-15.75,8.10,29.5,25856.0000000,57600.0000000
92,-10.19,-11.62,303.44,0.00,0.00,180.00,-0.139,0.141,0.877,0.38,-23.25,-1.38,8.10,29.5,25856.0000000,57600.0000000
93,-9.44,-8.50,305.25,0.00,0.00,180.00,-0.121,0.130,0.962,-46.69,10.19,-7.31,8.10,29.5,25856.0000000,57600.0000000
94,-11.19,-2.44,307.94,0.00,0.00,180.00,-0.308,0.170,1.012,-82.19,14.69,-40.00,8.10,29.5,25856.0000000,57600.0000000
95,-12.00,5.75,310.75,0.00,0.00,180.00,-0.348,0.006,0.902,-65.00,6.19,-62.25,8.10,29.5,25856.0000000,57600.0000000
96,-13.00,11.19,312.06,0.00,0.00,180.00,-0.186,-0.180,0.911,-31.19,15.94,-7.88,8.10,29.5,25856.0000000,57600.0000000
97,-14.88,12.00,311.38,0.00,0.00,180.00,-0.219,-0.175,1.039,12.44,6.12,18.62,8.10,29.5,25856.0000000,57600.0000000
98,-15.12,8.44,311.31,0.00,0.00,180.00,-0.319,-0.144,0.982,45.25,-1.25,6.44,8.10,29.5,25856.0000000,57600.0000000
99,-12.94,4.44,312.25,0.00,0.00,180.00,-0.179,-0.112,0.857,32.25,-24.69,-12.06,8.10,29.5,25856.0000000,57600.0000000
100,-10.88,3.19,312.88,0.00,0.00,180.00,-0.186,-0.016,0.912,0.56,-20.31,-2.69,8.10,29.5,25856.0000000,57600.0000000
101,-11.00,4.00,312.06,0.00,0.00,180.00,-0.259,-0.033,0.964,-11.69,12.19,15.19,8.10,29.5,25856.0000000,57600.0000000
102,-12.94,4.19,310.94,0.00,0.00,180.00,-0.253,-0.020,0.920,1.50,23.94,9.81,8.10,29.5,25856.0000000,57600.0000000
103,-14.88,3.19,309.75,0.00,0.00,180.00,-0.277,-0.036,0.891,9.88,9.69,16.25,8.10,29.5,25856.0000000,57600.0000000
104,-14.75,1.44,306.06,0.00,0.00,180.00,-0.347,-0.032,0.978,11.62,-14.12,67.88,8.10,29.5,25856.0000000,57600.0000000
105,-10.62,-2.88,300.62,0.00,0.00,180.00,-0.085,0.057,0.967,53.44,-62.12,33.56,8.10,29.5,25856.0000000,57600.0000000
106,-6.00,-7.25,300.00,0.00,0.00,180.00,-0.089,0.265,0.999,21.75,-33.19,-13.00,8.10,29.5,25856.0000000,57600.0000000
111,-12.69,-1.06,286.31,0.00,0.00,180.00,-0.229,0.046,0.909,-18.25,-50.75,50.06,8.05,44.5,25856.0000000,57600.0000000
112,-7.88,-1.19,282.62,0.00,0.00,180.00,-0.084,0.096,0.859,1.88,-30.00,32.56,8.05,44.5,25856.0000000,57600.0000000
113,-6.31,-0.12,278.62,0.00,0.00,180.00,-0.074,0.086,0.918,-31.12,-2.88,35.06,8.05,44.5,25856.0000000,57600.0000000
114,-5.75,4.62,275.12,0.00,0.00,180.00,-0.056,-0.149,0.903,-60.25,-7.25,25.44,8.05,44.5,25856.0000000,57600.0000000
115,-6.00,10.50,272.88,0.00,0.00,180.00,-0.125,0.046,0.806,-70.25,12.69,26.31,8.05,44.5,25856.0000000,57600.0000000
116,-10.38,17.94,266.69,0.00,0.00,180.00,-0.133,-0.488,0.939,-87.75,38.06,68.12,8.05,44.5,25856.0000000,57600.0000000
117,-14.75,23.19,261.00,0.00,0.00,180.00,-0.190,-0.506,0.935,-44.06,13.75,48.12,8.05,44.5,25856.0000000,57600.0000000
118,-17.62,26.31,256.38,0.00,0.00,180.00,-0.276,-0.359,0.851,-57.81,17.50,62.56,8.05,44.5,25856.0000000,57600.0000000
119,-20.88,29.69,251.56,0.00,0.00,180.00,-0.330,-0.533,0.829,-29.38,9.94,26.88,8.05,44.5,25856.0000000,57600.0000000
120,-20.50,29.81,252.00,0.00,0.00,180.00,-0.315,-0.546,0.841,27.38,-12.94,-36.19,8.05,44.5,25856.0000000,57600.0000000
121,-16.56,26.62,257.38,0.00,0.00,180.00,-0.260,-0.432,0.824,60.62,-18.12,-81.69,8.05,44.5,25856.0000000,57600.0000000
122,-12.06,21.19,265.44,0.00,0.00,180.00,-0.149,-0.509,0.851,91.56,-21.38,-117.75,8.05,44.5,25856.0000000,57600.0000000
123,-7.62,13.06,274.56,0.00,0.00,180.00,-0.135,-0.295,0.943,121.44,-26.69,-116.38,8.05,44.5,25856.0000000,57600.0000000
124,-3.25,1.62,284.50,0.00,0.00,180.00,-0.046,-0.146,0.918,132.06,-38.31,-99.62,8.05,44.5,25856.0000000,57600.0000000
133,-0.81,-17.94,296.88,0.00,0.00,180.00,-0.053,0.356,0.841,-120.62,66.69,81.69,8.05,44.5,25856.0000000,57600.0000000
134,-6.06,-6.25,287.62,0.00,0.00,180.00,-0.069,-0.117,0.989,-112.38,75.56,80.06,8.05,44.5,25856.0000000,57600.0000000
135,-12.44,0.19,280.94,0.00,0.00,180.00,-0.202,-0.078,1.028,-55.12,60.44,55.50,8.05,44.5,25856.0000000,57600.0000000
147,1.62,-16.50,301.19,0.00,0.00,180.00,-0.101,0.429,0.952,20.31,-5.75,-2.56,8.05,44.5,25856.0000000,57600.0000000
148,1.25,-17.56,300.50,0.00,0.00,180.00,-0.077,0.333,0.922,9.12,20.38,12.75,8.05,44.5,25856.0000000,57600.0000000
149,-0.88,-19.44,298.75,0.00,0.00,180.00,-0.139,0.399,1.091,24.00,36.50,24.81,8.05,44.5,25856.0000000,57600.0000000
150,-1.88,-20.25,293.62,0.00,0.00,180.00,0.062,0.011,0.759,13.06,20.88,43.56,8.07,29.5,25856.0000000,57600.0000000
151,-1.94,-23.75,291.12,0.00,0.00,180.00,0.053,0.307,0.800,38.75,11.44,31.31,8.07,29.5,25856.0000000,57600.0000000
153,0.44,-25.94,278.88,0.00,0.00,180.00,-0.003,0.484,0.810,-18.75,16.31,66.00,8.07,29.5,25856.0000000,57600.0000000
154,1.12,-21.81,270.69,0.00,0.00,180.00,-0.091,0.547,0.888,-58.88,36.38,97.31,8.07,29.5,25856.0000000,57600.0000000
155,0.88,-14.62,259.94,0.00,0.00,180.00,-0.083,0.346,1.026,-79.06,26.69,87.31,8.07,29.5,25856.0000000,57600.0000000
156,-0.25,-6.69,251.25,0.00,0.00,180.00,-0.013,0.132,0.888,-80.38,34.12,70.81,8.07,29.5,25856.0000000,57600.0000000
157,-3.75,1.12,240.12,0.00,0.00,180.00,-0.268,-0.369,1.125,-74.69,33.25,143.25,8.07,29.5,25856.0000000,57600.0000000
158,-1.69,1.75,232.75,0.00,0.00,180.00,-0.035,-0.379,1.024,43.94,-56.50,32.25,8.07,29.5,25856.0000000,57600.0000000
159,3.38,-6.25,233.19,0.00,0.00,180.00,0.144,0.082,0.857,95.12,-43.12,-31.31,8.07,29.5,25856.0000000,57600.0000000
161,1.62,-18.00,237.19,0.00,0.00,180.00,-0.047,0.605,0.837,-3.31,37.06,15.62,8.07,29.5,25856.0000000,57600.0000000
162,-0.56,-13.12,233.19,0.00,0.00,180.00,0.003,0.341,0.839,-80.38,46.12,47.50,8.07,29.5,25856.0000000,57600.0000000
163,-5.75,-5.06,225.25,0.00,0.00,180.00,-0.199,-0.184,1.006,-68.81,62.44,63.44,8.07,29.5,25856.0000000,57600.0000000
164,-7.44,-3.56,218.88,0.00,0.00,180.00,-0.213,-0.079,0.978,5.19,-26.31,31.88,8.07,29.5,25856.0000000,57600.0000000
165,-3.50,-5.19,217.06,0.00,0.00,180.00,-0.017,0.124,0.930,11.94,-25.00,26.50,8.07,29.5,25856.0000000,57600.0000000
166,-2.44,-5.19,214.44,0.00,0.00,180.00,-0.017,0.015,0.995,-4.50,-0.81,28.00,8.07,29.5,25856.0000000,57600.0000000
167,-3.19,-6.25,212.19,0.00,0.00,180.00,-0.129,0.130,0.998,15.50,19.00,25.25,8.07,29.5,25856.0000000,57600.0000000
168,-4.19,-6.94,209.00,0.00,0.00,180.00,-0.115,0.140,0.955,-3.69,5.31,25.75,8.07,29.5,25856.0000000,57600.0000000
172,-7.19,-8.25,202.00,0.00,0.00,180.00,-0.027,0.397,0.870,-30.19,25.12,0.19,8.07,29.5,25856.0000000,57600.0000000
173,-10.75,-1.19,202.25,0.00,0.00,180.00,-0.106,0.187,0.876,-97.75,45.94,-5.06,8.07,29.5,25856.0000000,57600.0000000
174,-15.94,5.94,205.06,0.00,0.00,180.00,-0.284,-0.108,1.002,-23.31,54.19,-72.94,8.07,29.5,25856.0000000,57600.0000000
175,-20.12,7.12,213.44,0.00,0.00,180.00,-0.467,-0.265,0.987,48.31,57.94,-78.50,8.07,29.5,25856.0000000,57600.0000000
176,-22.50,2.00,221.44,0.00,0.00,180.00,-0.626,-0.096,1.052,116.56,-7.06,-88.38,8.07,29.5,25856.0000000,57600.0000000
177,-18.00,-7.56,231.69,0.00,0.00,180.00,-0.412,0.278,0.782,127.38,-75.31,-73.69,8.07,29.5,25856.0000000,57600.0000000
178,-11.88,-15.75,237.75,0.00,0.00,180.00,-0.211,0.481,0.769,73.62,-67.62,-24.06,8.07,29.5,25856.0000000,57600.0000000
179,-6.25,-18.12,239.19,0.00,0.00,180.00,-0.063,0.345,0.876,-5.19,-54.81,16.50,8.07,29.5,25856.0000000,57600.0000000
180,-2.31,-14.62,236.69,0.00,0.00,180.00,-0.087,0.231,0.975,-64.12,-6.69,67.38,8.07,29.5,25856.0000000,57600.0000000
181,-2.81,-7.88,227.81,0.00,0.00,180.00,-0.010,-0.028,0.990,-63.44,49.75,93.19,8.07,29.5,25856.0000000,57600.0000000
182,-7.44,-1.81,218.38,0.00,0.00,180.00,-0.156,-0.002,0.953,-86.06,49.75,88.12,8.07,29.5,25856.0000000,57600.0000000
183,-11.88,6.62,211.44,0.00,0.00,180.00,-0.149,-0.058,0.735,-103.94,47.31,44.44,8.07,29.5,25856.0000000,57600.0000000
184,-17.94,15.75,206.50,0.00,0.00,180.00,-0.220,-0.266,0.891,-87.88,64.25,59.25,8.07,29.5,25856.0000000,57600.0000000
185,-23.31,20.44,203.44,0.00,0.00,180.00,-0.354,-0.372,0.932,-38.38,47.62,18.19,8.07,29.5,25856.0000000,57600.0000000
186,-26.31,23.81,204.19,0.00,0.00,180.00,-0.419,-0.337,0.799,-24.06,30.44,2.81,8.07,29.5,25856.0000000,57600.0000000
187,-27.75,27.31,204.81,0.00,0.00,180.00,-0.385,-0.614,0.733,-23.25,8.69,-10.25,8.07,29.5,25856.0000000,57600.0000000
188,-25.44,27.38,209.69,0.00,0.00,180.00,-0.351,-0.506,0.810,50.81,-6.12,-60.62,8.07,29.5,25856.0000000,57600.0000000
189,-22.31,25.50,216.94,0.00,0.00,180.00,-0.294,-0.482,0.833,36.56,-5.50,-72.00,8.07,29.5,25856.0000000,57600.0000000
190,-18.38,24.12,225.00,0.00,0.00,180.00,-0.290,-0.439,0.891,45.38,-14.69,-93.56,8.05,27.5,25856.0000000,57600.0000000
191,-10.62,20.31,236.25,0.00,0.00,180.00,-0.301,-0.284,1.058,55.38,-50.81,-107.31,8.05,27.5,25856.0000000,57600.0000000
192,-2.94,17.06,242.81,0.00,0.00,180.00,0.002,-0.313,1.004,41.69,-57.12,-76.38,8.05,27.5,25856.0000000,57600.0000000
193,3.56,13.75,249.44,0.00,0.00,180.00,0.089,-0.279,0.904,32.81,-49.69,-58.50,8.05,27.5,25856.0000000,57600.0000000
194,9.50,7.50,256.69,0.00,0.00,180.00,0.198,-0.135,0.734,72.62,-41.31,-78.31,8.05,27.5,25856.0000000,57600.0000000
195,10.56,0.19,263.75,0.00,0.00,180.00,0.197,0.071,0.801,41.81,11.94,-76.38,8.05,27.5,25856.0000000,57600.0000000
196,8.00,-2.94,270.69,0.00,0.00,180.00,0.264,0.100,0.743,-0.69,38.81,-69.25,8.05,27.5,25856.0000000,57600.0000000
197,4.81,-3.44,275.44,0.00,0.00,180.00,0.166,0.085,0.816,-1.00,9.94,-66.62,8.05,27.5,25856.0000000,57600.0000000
198,3.94,-4.75,281.19,0.00,0.00,180.00,0.117,0.136,0.861,18.62,8.38,-66.44,8.05,27.5,25856.0000000,57600.0000000
199,3.88,-5.94,287.12,0.00,0.00,180.00,0.096,0.311,0.951,-7.75,-10.38,-59.00,8.05,27.5,25856.0000000,57600.0000000
200,3.00,-1.06,289.25,0.00,0.00,180.00,0.165,0.003,0.926,-82.00,24.50,-9.38,8.05,27.5,25856.0000000,57600.0000000
202,-3.19,13.69,296.25,0.00,0.00,180.00,-0.224,-0.284,1.002,-71.19,19.06,-44.50,8.05,27.5,25856.0000000,57600.0000000
203,-2.25,19.75,299.19,0.00,0.00,180.00,-0.190,-0.380,0.999,-44.75,-12.62,-9.56,8.05,27.5,25856.0000000,57600.0000000
205,1.50,24.06,291.44,0.00,0.00,180.00,-0.021,-0.456,0.898,-24.62,-47.06,70.62,8.05,27.5,25856.0000000,57600.0000000
206,3.25,23.50,285.62,0.00,0.00,180.00,0.144,-0.659,0.901,48.81,-35.81,16.81,8.05,27.5,25856.0000000,57600.0000000
207,5.56,13.81,286.25,0.00,0.00,180.00,0.171,-0.457,1.007,129.62,-18.62,-39.88,8.05,27.5,25856.0000000,57600.0000000
208,6.56,-1.00,290.75,0.00,0.00,180.00,0.152,-0.068,0.966,174.38,7.69,-57.38,8.05,27.5,25856.0000000,57600.0000000
209,4.31,-18.81,298.31,0.00,0.00,180.00,0.040,0.325,0.808,165.19,17.25,-66.94,8.05,27.5,25856.0000000,57600.0000000
210,-0.50,-32.12,303.69,0.00,0.00,180.00,-0.043,0.616,0.630,105.50,44.06,-32.62,8.05,27.5,25856.0000000,57600.0000000
216,-10.75,30.81,283.44,0.00,0.00,180.00,-0.152,-0.286,0.802,-21.06,-44.88,-41.00,7.97,30.0,25856.0000000,57600.0000000
217,-8.12,33.38,284.25,0.00,0.00,180.00,-0.115,-0.601,0.880,-17.88,-7.06,-0.19,7.97,30.0,25856.0000000,57600.0000000
218,-6.56,30.88,286.06,0.00,0.00,180.00,-0.073,-0.912,0.903,80.56,-8.56,-42.94,7.97,30.0,25856.0000000,57600.0000000
219,-1.62,18.19,293.50,0.00,0.00,180.00,-0.031,-0.608,0.877,164.38,-30.56,-84.81,7.97,30.0,25856.0000000,57600.0000000
220,2.88,1.12,302.56,0.00,0.00,180.00,-0.033,-0.142,0.911,169.38,-31.06,-82.44,7.97,30.0,25856.0000000,57600.0000000
221,3.94,-13.00,307.69,0.00,0.00,180.00,0.000,0.235,0.844,109.69,-1.75,-21.56,7.97,30.0,25856.0000000,57600.0000000
224,-1.50,-26.69,306.88,0.00,0.00,180.00,-0.045,0.697,0.753,-13.69,29.06,27.44,7.97,30.0,25856.0000000,57600.0000000
225,-2.75,-18.75,299.31,0.00,0.00,180.00,0.047,0.643,0.661,-144.62,58.44,88.44,7.97,30.0,25856.0000000,57600.0000000
226,-9.38,-1.94,287.50,0.00,0.00,180.00,-0.096,0.150,0.804,-198.38,105.31,90.50,7.97,30.0,25856.0000000,57600.0000000
227,-17.19,14.75,282.19,0.00,0.00,180.00,-0.255,-0.049,0.925,-160.56,54.75,25.56,7.97,30.0,25856.0000000,57600.0000000
228,-18.94,26.19,281.56,0.00,0.00,180.00,-0.154,-0.527,0.934,-62.44,8.00,-35.31,7.97,30.0,25856.0000000,57600.0000000
229,-15.19,27.44,287.56,0.00,0.00,180.00,-0.181,-0.560,0.954,46.62,-24.75,-84.38,7.97,30.0,25856.0000000,57600.0000000
231,0.00,7.50,307.44,0.00,0.00,180.00,-0.041,-0.354,0.956,158.44,-64.81,-113.69,7.97,30.0,25856.0000000,57600.0000000
235,4.94,-37.75,320.88,0.00,0.00,180.00,0.041,0.726,0.707,-32.50,41.00,83.81,7.97,30.0,25856.0000000,57600.0000000
236,5.69,-28.44,308.00,0.00,0.00,180.00,0.238,0.465,0.684,-110.56,90.12,105.31,7.97,30.0,25856.0000000,57600.0000000
237,-0.56,-14.56,293.94,0.00,0.00,180.00,0.071,0.138,1.039,-126.94,111.56,96.62,7.97,30.0,25856.0000000,57600.0000000
238,-9.12,-4.62,284.62,0.00,0.00,180.00,-0.133,0.142,1.000,-123.94,119.88,94.38,7.97,30.0,25856.0000000,57600.0000000
239,-18.56,6.50,276.38,0.00,0.00,180.00,-0.128,-0.029,0.859,-133.62,83.75,51.25,7.97,30.0,25856.0000000,57600.0000000
240,-24.75,20.75,275.62,0.00,0.00,180.00,-0.200,-0.115,0.676,-145.69,76.00,-11.62,7.97,30.0,25856.0000000,57600.0000000
241,-29.38,35.38,278.44,0.00,0.00,180.00,-0.328,-0.527,0.834,-64.31,75.12,-49.00,7.97,30.0,25856.0000000,57600.0000000
242,-25.44,39.31,289.19,0.00,0.00,180.00,-0.411,-0.579,0.876,57.00,1.12,-98.56,7.97,30.0,25856.0000000,57600.0000000
243,-15.88,32.31,301.00,0.00,0.00,180.00,-0.339,-0.580,0.884,115.94,-48.69,-88.62,7.97,30.0,25856.0000000,57600.0000000
245,-0.56,9.19,313.25,0.00,0.00,180.00,-0.046,-0.428,1.003,144.38,-49.62,-50.69,7.97,30.0,25856.0000000,57600.0000000
246,2.50,-5.25,316.62,0.00,0.00,180.00,-0.049,0.002,1.016,153.31,-24.12,-52.62,7.97,30.0,25856.0000000,57600.0000000
247,2.75,-18.88,318.88,0.00,0.00,180.00,-0.116,0.358,0.952,122.06,-5.88,-22.81,7.97,30.0,25856.0000000,57600.0000000
249,2.12,-22.44,311.81,0.00,0.00,180.00,0.071,0.403,0.719,-83.06,62.69,73.38,7.97,30.0,25856.0000000,57600.0000000
251,-8.88,-3.69,289.25,0.00,0.00,180.00,-0.164,-0.048,1.070,-72.44,39.00,94.38,8.10,28.5,25856.0000000,57600.0000000
252,-8.50,-2.06,282.81,0.00,0.00,180.00,-0.075,0.000,0.935,9.31,-10.81,30.19,8.10,28.5,25856.0000000,57600.0000000
254,-6.94,-3.62,277.50,0.00,0.00,180.00,-0.119,0.032,0.918,-4.56,-4.88,11.81,8.10,28.5,25856.0000000,57600.0000000
3,-9.62,-3.00,330.81,0.00,0.00,180.00,-0.199,0.165,0.965,-27.31,27.19,-114.44,8.10,28.5,25856.0000000,57600.0000000
4,-12.00,1.44,339.12,0.00,0.00,180.00,-0.239,-0.030,0.926,-31.88,20.62,-93.69,8.10,28.5,25856.0000000,57600.0000000
5,-11.56,6.62,349.38,0.00,0.00,180.00,-0.211,-0.110,0.924,-34.25,-2.75,-107.44,8.10,28.5,25856.0000000,57600.0000000
6,-8.44,11.19,0.25,0.00,0.00,180.00,-0.155,-0.221,0.928,-19.00,-21.44,-115.94,8.10,28.5,25856.0000000,57600.0000000
7,-4.44,13.38,10.31,0.00,0.00,180.00,-0.116,-0.335,0.989,-0.12,-16.44,-95.44,8.10,28.5,25856.0000000,57600.0000000
8,-0.38,11.56,19.56,0.00,0.00,180.00,-0.049,-0.256,0.966,36.12,-22.38,-83.81,8.10,28.5,25856.0000000,57600.0000000
9,2.62,8.12,26.50,0.00,0.00,180.00,0.037,-0.094,0.926,26.38,-14.56,-52.25,8.10,28.5,25856.0000000,57600.0000000
10,3.56,7.25,29.50,0.00,0.00,180.00,0.034,-0.069,0.952,-6.81,-5.31,-18.81,8.10,28.5,25856.0000000,57600.0000000
11,4.19,8.25,30.56,0.00,0.00,180.00,0.109,-0.150,0.963,-6.88,-3.25,4.06,8.10,28.5,25856.0000000,57600.0000000
12,3.69,8.31,29.50,0.00,0.00,180.00,0.109,-0.198,0.928,5.25,12.19,36.19,8.10,28.5,25856.0000000,57600.0000000
13,1.38,7.62,24.00,0.00,0.00,180.00,-0.012,-0.077,0.935,7.00,21.31,87.81,8.10,28.5,25856.0000000,57600.0000000
14,-1.88,7.00,12.62,0.00,0.00,180.00,-0.103,-0.114,1.013,15.88,6.62,122.69,8.10,28.5,25856.0000000,57600.0000000
15,-3.25,3.44,359.00,0.00,0.00,180.00,-0.025,-0.045,0.960,40.38,-6.62,136.19,8.10,28.5,25856.0000000,57600.0000000
16,-3.81,-1.19,344.88,0.00,0.00,180.00,-0.037,0.053,0.903,30.44,7.31,144.88,8.05,29.5,25856.0000000,57600.0000000
17,-5.06,-2.62,329.00,0.00,0.00,180.00,-0.140,-0.037,0.974,-19.00,25.44,171.62,8.05,29.5,25856.0000000,57600.0000000
18,-6.06,-2.56,314.38,0.00,0.00,180.00,-0.238,-0.063,1.011,-13.69,19.81,191.25,8.05,29.5,25856.0000000,57600.0000000
19,-4.44,-4.25,298.19,0.00,0.00,180.00,-0.154,0.017,1.017,3.88,-22.06,163.50,8.05,29.5,25856.0000000,57600.0000000
20,-1.62,-6.00,284.62,0.00,0.00,180.00,0.115,-0.027,0.897,18.50,-1.12,115.69,8.05,29.5,25856.0000000,57600.0000000
21,-2.19,-9.06,273.12,0.00,0.00,180.00,-0.017,0.187,0.944,25.62,25.12,108.31,8.05,29.5,25856.0000000,57600.0000000
22,-2.38,-10.25,264.44,0.00,0.00,180.00,-0.024,0.362,0.844,-9.94,15.94,69.12,8.05,29.5,25856.0000000,57600.0000000
23,-4.38,-6.25,257.00,0.00,0.00,180.00,0.000,0.087,0.833,-58.69,40.69,54.81,8.05,29.5,25856.0000000,57600.0000000
24,-8.38,-1.56,253.50,0.00,0.00,180.00,-0.071,-0.023,0.965,-39.25,37.12,8.00,8.05,29.5,25856.0000000,57600.0000000
25,-12.12,0.69,252.56,0.00,0.00,180.00,-0.170,-0.020,0.981,-13.75,38.75,-3.12,8.05,29.5,25856.0000000,57600.0000000
26,-14.56,1.88,253.62,0.00,0.00,180.00,-0.312,-0.062,0.979,-9.00,8.69,-12.12,8.05,29.5,25856.0000000,57600.0000000
27,-12.69,2.06,255.69,0.00,0.00,180.00,-0.289,-0.122,1.024,14.81,-37.06,-26.12,8.05,29.5,25856.0000000,57600.0000000
28,-8.44,-0.56,259.06,0.00,0.00,180.00,0.071,-0.068,0.882,44.06,-40.38,-5.38,8.05,29.5,25856.0000000,57600.0000000
29,-8.06,-4.88,261.25,0.00,0.00,180.00,-0.335,0.232,0.873,7.06,-23.81,-46.19,8.05,29.5,25856.0000000,57600.0000000
30,-3.12,-6.75,259.94,0.00,0.00,180.00,-0.182,0.146,0.786,20.00,-70.75,34.38,8.05,29.5,25856.0000000,57600.0000000
31,-0.88,-7.38,255.81,0.00,0.00,180.00,-0.060,0.116,1.028,-0.38,39.69,52.44,8.05,29.5,25856.0000000,57600.0000000
32,-1.38,-7.00,250.56,0.00,0.00,180.00,0.000,0.197,0.956,12.81,-4.31,47.44,8.05,29.5,25856.0000000,57600.0000000
33,-1.50,-6.06,247.50,0.00,0.00,180.00,-0.146,0.118,0.900,-33.38,15.44,43.81,8.05,29.5,25856.0000000,57600.0000000
34,-0.44,-3.75,239.44,0.00,0.00,180.00,0.000,0.006,1.004,5.94,-23.06,86.31,8.05,29.5,25856.0000000,57600.0000000
35,1.44,-3.31,234.00,0.00,0.00,180.00,0.119,0.083,0.966,-16.12,1.81,31.56,8.05,29.5,25856.0000000,57600.0000000
36,1.50,-2.00,231.94,0.00,0.00,180.00,0.025,0.016,0.954,-20.25,0.62,18.88,8.02,39.0,25856.0000000,57600.0000000
37,1.94,-1.88,230.62,0.00,0.00,180.00,0.058,-0.073,1.101,21.75,-7.75,12.56,8.02,39.0,25856.0000000,57600.0000000
38,1.69,-3.75,230.50,0.00,0.00,180.00,0.033,0.179,0.924,3.75,15.00,1.56,8.02,39.0,25856.0000000,57600.0000000
39,-0.50,-4.50,226.69,0.00,0.00,180.00,-0.051,-0.013,1.075,10.62,20.00,65.75,8.02,39.0,25856.0000000,57600.0000000
40,-1.25,-5.56,222.06,0.00,0.00,180.00,0.025,0.119,0.933,0.69,7.94,24.75,8.02,39.0,25856.0000000,57600.0000000
41,-2.06,-6.38,219.94,0.00,0.00,180.00,0.008,0.057,0.947,13.56,0.50,21.75,8.02,39.0,25856.0000000,57600.0000000
42,-2.81,-8.25,219.69,0.00,0.00,180.00,-0.043,0.203,0.936,20.81,14.00,0.00,8.02,39.0,25856.0000000,57600.0000000
43,-4.25,-9.25,220.38,0.00,0.00,180.00,-0.150,0.327,0.942,11.94,5.50,13.69,8.02,39.0,25856.0000000,57600.0000000
44,-4.69,-8.81,215.38,0.00,0.00,180.00,-0.144,0.195,0.984,-22.81,18.38,63.69,8.02,39.0,25856.0000000,57600.0000000
45,-5.44,-7.62,206.88,0.00,0.00,180.00,-0.103,0.067,0.945,-32.81,18.81,60.44,8.02,39.0,25856.0000000,57600.0000000
46,-7.38,-5.00,200.62,0.00,0.00,180.00,-0.208,-0.067,0.952,-34.50,37.06,56.62,8.02,39.0,25856.0000000,57600.0000000
47,-8.81,-3.06,194.06,0.00,0.00,180.00,-0.186,-0.001,0.891,-31.19,15.50,70.00,8.02,39.0,25856.0000000,57600.0000000
48,-9.94,-0.69,186.44,0.00,0.00,180.00,-0.131,-0.182,0.944,-48.19,19.44,50.19,8.02,39.0,25856.0000000,57600.0000000
49,-10.94,1.62,181.94,0.00,0.00,180.00,-0.145,-0.200,1.017,-34.75,12.81,64.06,8.02,39.0,25856.0000000,57600.0000000
50,-11.81,4.31,179.56,0.00,0.00,180.00,-0.234,-0.167,0.977,-20.56,1.69,40.31,8.02,39.0,25856.0000000,57600.0000000
51,-11.81,4.75,178.06,0.00,0.00,180.00,-0.220,-0.032,0.980,-1.56,1.44,12.12,8.02,39.0,25856.0000000,57600.0000000
52,-12.31,4.25,176.69,0.00,0.00,180.00,-0.233,-0.071,0.950,3.50,-2.00,5.50,8.02,39.0,25856.0000000,57600.0000000
53,-12.44,4.06,176.12,0.00,0.00,180.00,-0.236,-0.087,0.934,2.56,5.00,13.75,8.02,39.0,25856.0000000,57600.0000000
54,-13.12,2.94,173.56,0.00,0.00,180.00,-0.274,-0.033,0.947,7.00,1.94,35.19,8.02,39.0,25856.0000000,57600.0000000
55,-13.19,1.88,170.31,0.00,0.00,180.00,-0.260,-0.029,0.944,-0.44,-8.88,35.44,8.02,39.0,25856.0000000,57600.0000000
56,-12.25,1.88,167.56,0.00,0.00,180.00,-0.197,-0.040,0.923,-10.62,-11.88,12.69,8.12,27.0,25856.0000000,57600.0000000
57,-11.50,2.44,165.81,0.00,0.00,180.00,-0.179,-0.053,0.927,-0.12,-2.38,9.19,8.12,27.0,25856.0000000,57600.0000000
58,-11.75,1.94,164.62,0.00,0.00,180.00,-0.194,-0.031,0.934,3.62,3.88,11.06,8.12,27.0,25856.0000000,57600.0000000
59,-12.00,1.25,163.25,0.00,0.00,180.00,-0.224,0.001,0.952,3.19,-0.50,12.31,8.12,27.0,25856.0000000,57600.0000000
60,-11.75,1.56,162.69,0.00,0.00,180.00,-0.202,-0.039,0.941,-6.69,-2.81,4.56,8.12,27.0,25856.0000000,57600.0000000
61,-11.69,1.69,162.12,0.00,0.00,180.00,-0.186,-0.030,0.927,1.69,1.69,8.69,8.12,27.0,25856.0000000,57600.0000000
62,-11.81,1.44,161.75,0.00,0.00,180.00,-0.192,-0.020,0.946,1.25,-0.81,-0.69,8.12,27.0,25856.0000000,57600.0000000
63,-11.94,1.38,161.81,0.00,0.00,180.00,-0.203,-0.024,0.956,4.25,4.00,1.81,8.12,27.0,25856.0000000,57600.0000000
64,-11.75,1.38,162.56,0.00,0.00,180.00,-0.204,-0.008,0.955,-2.38,-5.00,-15.19,8.12,27.0,25856.0000000,57600.0000000
65,-11.25,1.69,164.62,0.00,0.00,180.00,-0.175,-0.046,0.950,-0.75,-7.94,-44.31,8.12,27.0,25856.0000000,57600.0000000
66,-10.25,2.50,169.44,0.00,0.00,180.00,-0.167,-0.088,0.972,0.56,-18.69,-71.31,8.12,27.0,25856.0000000,57600.0000000
67,-7.69,4.19,177.06,0.00,0.00,180.00,-0.151,-0.080,0.970,-9.19,-28.06,-85.81,8.12,27.0,25856.0000000,57600.0000000
68,-3.81,6.50,185.75,0.00,0.00,180.00,-0.099,-0.135,0.962,-10.38,-32.44,-72.88,8.12,27.0,25856.0000000,57600.0000000
69,1.38,8.31,196.31,0.00,0.00,180.00,-0.049,-0.124,0.977,-15.00,-32.69,-101.19,8.12,27.0,25856.0000000,57600.0000000
70,6.75,8.69,208.81,0.00,0.00,180.00,0.008,-0.071,0.986,-16.00,-25.38,-154.88,8.12,27.0,25856.0000000,57600.0000000
71,9.62,6.94,218.31,0.00,0.00,180.00,0.081,-0.072,0.967,6.38,-14.25,-123.88,8.12,27.0,25856.0000000,57600.0000000
72,12.88,4.19,228.31,0.00,0.00,180.00,0.156,-0.116,0.942,-3.56,-46.62,-122.94,8.12,27.0,25856.0000000,57600.0000000
73,20.19,1.31,243.56,0.00,0.00,180.00,0.289,-0.021,0.865,-4.69,-74.00,-133.56,8.12,27.0,25856.0000000,57600.0000000
74,25.75,-4.50,258.19,0.00,0.00,180.00,0.282,0.203,0.817,9.81,-39.62,-129.19,8.12,27.0,25856.0000000,57600.0000000
75,26.56,-10.25,265.88,0.00,0.00,180.00,0.389,0.256,0.793,-1.94,-2.81,-89.50,8.12,27.0,25856.0000000,57600.0000000
76,24.75,-11.81,272.56,0.00,0.00,180.00,0.467,0.141,0.766,-35.19,11.88,-73.44,8.12,27.0,25856.0000000,57600.0000000
77,20.50,-11.56,279.81,0.00,0.00,180.00,0.432,0.165,0.847,-13.19,42.31,-46.88,8.12,27.0,25856.0000000,57600.0000000
79,8.19,-15.00,296.44,0.00,0.00,180.00,0.060,0.285,0.966,11.81,47.88,-106.88,8.12,27.0,25856.0000000,57600.0000000
80,2.31,-17.50,303.56,0.00,0.00,180.00,-0.106,0.335,0.924,6.25,29.25,-81.25,8.12,27.0,25856.0000000,57600.0000000
81,-1.06,-17.56,309.25,0.00,0.00,180.00,-0.157,0.309,0.909,-11.25,3.06,-54.31,8.12,27.0,25856.0000000,57600.0000000
82,-1.81,-15.56,315.50,0.00,0.00,180.00,-0.092,0.235,0.934,-12.81,-14.94,-57.75,8.12,27.0,25856.0000000,57600.0000000
83,-1.50,-13.94,323.56,0.00,0.00,180.00,-0.048,0.224,0.909,-14.69,-27.81,-102.06,8.12,27.0,25856.0000000,57600.0000000
84,-1.81,-13.44,330.25,0.00,0.00,180.00,-0.100,0.240,0.954,-2.19,-12.50,-52.56,8.12,27.0,25856.0000000,57600.0000000
85,-1.12,-12.62,335.38,0.00,0.00,180.00,-0.042,0.238,0.927,-5.25,-19.38,-38.06,8.12,27.0,25856.0000000,57600.0000000
86,-0.19,-11.69,339.12,0.00,0.00,180.00,-0.011,0.213,0.931,-12.88,-16.88,-39.94,8.12,27.0,25856.0000000,57600.0000000
87,0.19,-10.69,341.62,0.00,0.00,180.00,-0.052,0.137,0.919,-10.00,-6.06,-9.44,8.12,27.0,25856.0000000,57600.0000000
88,0.19,-10.88,338.81,0.00,0.00,180.00,-0.087,0.160,0.915,21.00,5.06,77.31,8.12,27.0,25856.0000000,57600.0000000
89,2.31,-13.56,326.88,0.00,0.00,180.00,0.014,0.172,0.994,25.44,-0.94,141.94,8.12,27.0,25856.0000000,57600.0000000
90,5.75,-15.81,313.12,0.00,0.00,180.00,0.073,0.191,0.993,41.19,-2.00,141.56,8.12,27.0,25856.0000000,57600.0000000
91,10.25,-16.94,302.00,0.00,0.00,180.00,0.108,0.328,0.881,21.94,-12.94,120.44,8.12,27.0,25856.0000000,57600.0000000
92,14.25,-16.19,290.06,0.00,0.00,180.00,0.216,0.327,0.853,10.81,-9.50,131.94,8.12,27.0,25856.0000000,57600.0000000
93,17.62,-11.31,276.56,0.00,0.00,180.00,0.257,0.125,0.794,-22.00,5.50,144.94,8.12,27.0,25856.0000000,57600.0000000
94,17.50,-3.94,263.75,0.00,0.00,180.00,0.277,-0.040,0.864,-38.19,26.19,127.62,8.12,27.0,25856.0000000,57600.0000000
95,15.69,3.00,255.06,0.00,0.00,180.00,0.256,-0.060,0.899,-42.81,17.88,95.56,8.12,27.0,25856.0000000,57600.0000000
96,13.31,10.00,248.69,0.00,0.00,180.00,0.201,-0.148,0.893,-61.19,19.94,69.69,8.12,27.0,25856.0000000,57600.0000000
97,10.19,17.50,244.19,0.00,0.00,180.00,0.086,-0.218,0.879,-72.62,18.62,48.62,8.04,40.5,25856.0000000,57600.0000000
98,7.69,26.12,240.31,0.00,0.00,180.00,0.053,-0.376,0.853,-100.50,0.88,25.25,8.04,40.5,25856.0000000,57600.0000000
99,7.25,35.19,237.62,0.00,0.00,180.00,0.165,-0.623,0.794,-99.19,-21.62,26.50,8.04,40.5,25856.0000000,57600.0000000
100,6.75,43.38,235.50,0.00,0.00,180.00,0.130,-0.854,0.732,-46.25,-10.19,33.56,8.04,40.5,25856.0000000,57600.0000000
101,4.69,42.69,232.69,0.00,0.00,180.00,0.129,-0.674,0.794,31.69,3.69,10.44,8.04,40.5,25856.0000000,57600.0000000
102,4.12,41.69,232.00,0.00,0.00,180.00,0.085,-0.516,0.707,-14.50,3.88,0.62,8.04,40.5,25856.0000000,57600.0000000
103,3.50,43.56,231.69,0.00,0.00,180.00,0.025,-0.674,0.637,-20.75,3.19,-5.00,8.04,40.5,25856.0000000,57600.0000000
104,3.19,44.75,231.88,0.00,0.00,180.00,0.064,-0.746,0.667,-1.81,6.25,8.19,8.04,40.5,25856.0000000,57600.0000000
105,3.00,44.06,232.75,0.00,0.00,180.00,0.022,-0.690,0.752,16.69,7.25,0.31,8.04,40.5,25856.0000000,57600.0000000
106,3.31,41.81,233.38,0.00,0.00,180.00,0.010,-0.625,0.763,24.44,-1.25,-16.44,8.04,40.5,25856.0000000,57600.0000000
107,3.81,38.75,233.44,0.00,0.00,180.00,0.027,-0.661,0.749,44.94,-7.00,-3.50,8.04,40.5,25856.0000000,57600.0000000
108,5.00,34.25,234.12,0.00,0.00,180.00,0.036,-0.553,0.806,49.38,-1.62,-6.19,8.04,40.5,25856.0000000,57600.0000000
109,4.31,27.38,232.56,0.00,0.00,180.00,0.070,-0.542,0.826,90.62,8.50,15.12,8.04,40.5,25856.0000000,57600.0000000
110,2.69,16.56,230.06,0.00,0.00,180.00,0.033,-0.310,0.907,129.50,7.81,27.50,8.04,40.5,25856.0000000,57600.0000000
111,1.81,3.81,227.44,0.00,0.00,180.00,0.031,-0.032,0.898,131.38,4.81,21.94,8.04,40.5,25856.0000000,57600.0000000
112,1.38,-8.12,225.31,0.00,0.00,180.00,0.008,0.188,0.862,114.19,5.62,12.44,8.04,40.5,25856.0000000,57600.0000000
113,0.69,-17.31,224.69,0.00,0.00,180.00,-0.055,0.369,0.866,72.44,7.69,-7.00,8.04,40.5,25856.0000000,57600.0000000
114,0.50,-21.88,225.94,0.00,0.00,180.00,-0.084,0.451,0.877,23.00,-12.81,-16.69,8.04,40.5,25856.0000000,57600.0000000
115,1.06,-24.12,226.50,0.00,0.00,180.00,-0.001,0.396,0.830,10.06,-12.94,0.44,8.04,40.5,25856.0000000,57600.0000000
116,1.62,-24.88,226.25,0.00,0.00,180.00,0.033,0.426,0.819,4.31,2.75,10.88,8.04,40.5,25856.0000000,57600.0000000
117,1.56,-25.06,225.69,0.00,0.00,180.00,0.042,0.471,0.826,5.12,1.44,6.75,8.09,29.5,25856.0000000,57600.0000000
118,1.44,-23.88,225.19,0.00,0.00,180.00,0.024,0.438,0.788,-32.88,6.19,3.12,8.09,29.5,25856.0000000,57600.0000000
119,0.00,-18.88,223.31,0.00,0.00,180.00,-0.032,0.329,0.828,-74.25,33.38,15.94,8.09,29.5,25856.0000000,57600.0000000
120,-1.81,-9.94,221.25,0.00,0.00,180.00,-0.082,0.158,0.877,-105.44,14.38,19.00,8.09,29.5,25856.0000000,57600.0000000
121,-2.00,1.50,220.38,0.00,0.00,180.00,-0.053,-0.108,0.945,-114.31,-2.50,6.31,8.09,29.5,25856.0000000,57600.0000000
122,-1.88,10.75,220.56,0.00,0.00,180.00,-0.030,-0.175,0.940,-100.69,-0.38,-10.38,8.09,29.5,25856.0000000,57600.0000000
123,-1.94,20.75,221.00,0.00,0.00,180.00,-0.089,-0.420,0.889,-107.00,-1.56,-14.56,8.09,29.5,25856.0000000,57600.0000000
124,-0.56,29.81,221.81,0.00,0.00,180.00,-0.037,-0.608,0.818,-79.69,-9.06,-18.56,8.09,29.5,25856.0000000,57600.0000000
125,0.25,34.31,221.62,0.00,0.00,180.00,0.019,-0.665,0.798,-24.44,-4.75,4.81,8.09,29.5,25856.0000000,57600.0000000
126,-0.19,35.56,221.00,0.00,0.00,180.00,-0.014,-0.610,0.795,-4.25,6.19,16.81,8.09,29.5,25856.0000000,57600.0000000
127,-2.81,35.00,219.19,0.00,0.00,180.00,-0.039,-0.561,0.764,20.00,29.75,40.69,8.09,29.5,25856.0000000,57600.0000000
128,-9.88,31.88,215.62,0.00,0.00,180.00,-0.179,-0.532,0.787,38.50,68.50,64.19,8.09,29.5,25856.0000000,57600.0000000
129,-19.19,27.00,211.56,0.00,0.00,180.00,-0.295,-0.389,0.764,41.81,73.56,61.94,8.09,29.5,25856.0000000,57600.0000000
130,-29.38,22.25,207.81,0.00,0.00,180.00,-0.431,-0.358,0.713,44.88,97.62,71.06,8.09,29.5,25856.0000000,57600.0000000
131,-40.38,15.12,203.56,0.00,0.00,180.00,-0.673,-0.247,0.719,55.06,106.31,78.81,8.09,29.5,25856.0000000,57600.0000000
132,-49.00,6.44,199.62,0.00,0.00,180.00,-0.763,-0.088,0.664,30.25,59.06,43.06,8.09,29.5,25856.0000000,57600.0000000
133,-52.94,2.06,197.19,0.00,0.00,180.00,-0.778,-0.030,0.579,2.38,27.31,18.69,8.09,29.5,25856.0000000,57600.0000000
134,-55.75,-2.50,194.31,0.00,0.00,180.00,-0.796,0.054,0.505,12.12,32.38,36.44,8.09,29.5,25856.0000000,57600.0000000
135,-59.19,-11.69,190.19,0.00,0.00,180.00,-0.899,0.118,0.483,17.50,37.88,42.56,8.09,29.5,25856.0000000,57600.0000000
136,-60.94,-21.19,186.75,0.00,0.00,180.00,-0.978,0.147,0.497,8.62,14.69,25.56,8.09,29.5,25856.0000000,57600.0000000
137,-59.69,-22.25,185.12,0.00,0.00,180.00,-0.839,0.231,0.457,-13.69,-15.12,11.00,8.09,29.5,25856.0000000,57600.0000000
138,-58.75,-25.00,182.38,0.00,0.00,180.00,-0.814,0.162,0.449,2.19,9.88,23.94,8.05,30.0,25856.0000000,57600.0000000
139,-58.56,-29.06,180.06,0.00,0.00,180.00,-0.944,0.212,0.485,1.81,0.00,22.56,8.05,30.0,25856.0000000,57600.0000000
140,-56.31,-26.38,179.56,0.00,0.00,180.00,-0.924,0.215,0.538,-17.81,-43.81,-9.69,8.05,30.0,25856.0000000,57600.0000000
141,-51.38,-18.06,181.75,0.00,0.00,180.00,-0.806,0.168,0.592,-18.88,-75.19,-24.31,8.05,30.0,25856.0000000,57600.0000000
142,-44.94,-9.94,184.88,0.00,0.00,180.00,-0.773,0.119,0.685,-27.81,-80.56,-47.06,8.05,30.0,25856.0000000,57600.0000000
143,-36.75,-1.81,188.69,0.00,0.00,180.00,-0.614,0.051,0.742,-40.81,-94.31,-60.88,8.05,30.0,25856.0000000,57600.0000000
144,-26.88,6.00,193.12,0.00,0.00,180.00,-0.448,-0.036,0.821,-45.00,-101.12,-64.75,8.05,30.0,25856.0000000,57600.0000000
145,-18.06,11.75,196.94,0.00,0.00,180.00,-0.332,-0.147,0.852,-43.94,-87.62,-53.50,8.05,30.0,25856.0000000,57600.0000000
146,-8.62,16.88,200.94,0.00,0.00,180.00,-0.155,-0.300,0.861,-39.19,-81.62,-48.25,8.05,30.0,25856.0000000,57600.0000000
147,-0.25,20.12,204.81,0.00,0.00,180.00,-0.010,-0.316,0.852,-25.44,-62.69,-46.56,8.05,30.0,25856.0000000,57600.0000000
148,6.81,22.19,208.62,0.00,0.00,180.00,0.051,-0.367,0.883,-25.88,-62.50,-63.12,8.05,30.0,25856.0000000,57600.0000000
149,14.12,23.31,211.88,0.00,0.00,180.00,0.227,-0.387,0.835,-8.88,-57.62,-45.06,8.05,30.0,25856.0000000,57600.0000000
150,18.94,22.25,213.50,0.00,0.00,180.00,0.346,-0.391,0.777,19.19,-34.62,-17.81,8.05,30.0,25856.0000000,57600.0000000
151,23.06,19.12,216.25,0.00,0.00,180.00,0.388,-0.316,0.809,30.81,-32.31,-51.06,8.05,30.0,25856.0000000,57600.0000000
152,27.56,15.25,218.56,0.00,0.00,180.00,0.441,-0.226,0.765,27.25,-45.69,-21.88,8.05,30.0,25856.0000000,57600.0000000
153,31.81,12.44,218.69,0.00,0.00,180.00,0.499,-0.166,0.710,30.25,-38.75,0.12,8.05,30.0,25856.0000000,57600.0000000
154,33.88,9.56,220.00,0.00,0.00,180.00,0.520,-0.012,0.708,16.81,-8.50,-18.12,8.05,30.0,25856.0000000,57600.0000000
155,32.44,8.12,220.81,0.00,0.00,180.00,0.535,-0.072,0.728,-1.94,36.75,-15.31,8.05,30.0,25856.0000000,57600.0000000
156,24.81,5.88,218.50,0.00,0.00,180.00,0.532,-0.110,0.750,52.31,121.00,36.44,8.05,30.0,25856.0000000,57600.0000000
157,10.12,0.94,216.06,0.00,0.00,180.00,0.066,-0.047,0.918,55.06,156.31,12.50,8.05,30.0,25856.0000000,57600.0000000
158,-3.06,-4.31,214.56,0.00,0.00,180.00,-0.051,0.068,0.889,52.75,129.75,22.00,8.03,41.5,25856.0000000,57600.0000000
159,-15.12,-9.19,213.50,0.00,0.00,180.00,-0.271,0.098,0.852,50.75,122.81,14.50,8.03,41.5,25856.0000000,57600.0000000
160,-25.50,-14.56,213.75,0.00,0.00,180.00,-0.538,0.186,0.841,49.19,84.56,-9.75,8.03,41.5,25856.0000000,57600.0000000
161,-31.12,-18.38,214.50,0.00,0.00,180.00,-0.571,0.313,0.810,24.94,55.38,-13.19,8.03,41.5,25856.0000000,57600.0000000
162,-35.25,-20.00,215.12,0.00,0.00,180.00,-0.662,0.298,0.753,8.19,31.00,-5.81,8.03,41.5,25856.0000000,57600.0000000
163,-37.31,-20.62,215.00,0.00,0.00,180.00,-0.709,0.312,0.764,-3.00,11.56,6.12,8.03,41.5,25856.0000000,57600.0000000
164,-36.12,-18.19,214.94,0.00,0.00,180.00,-0.778,0.286,0.805,-32.75,-44.06,-11.06,8.03,41.5,25856.0000000,57600.0000000
165,-28.62,-10.38,216.19,0.00,0.00,180.00,-0.648,0.218,0.847,-69.25,-117.44,-20.00,8.03,41.5,25856.0000000,57600.0000000
166,-15.88,-1.44,216.75,0.00,0.00,180.00,-0.359,0.049,0.874,-85.81,-138.50,-11.75,8.03,41.5,25856.0000000,57600.0000000
167,-2.31,5.56,215.88,0.00,0.00,180.00,-0.002,-0.137,0.834,-60.75,-136.00,5.50,8.03,41.5,25856.0000000,57600.0000000
168,7.94,9.94,214.44,0.00,0.00,180.00,0.238,-0.182,0.753,-25.62,-78.88,23.19,8.03,41.5,25856.0000000,57600.0000000
169,11.62,11.88,211.69,0.00,0.00,180.00,0.227,-0.271,0.843,-13.75,-36.62,27.62,8.03,41.5,25856.0000000,57600.0000000
170,16.50,15.38,211.62,0.00,0.00,180.00,0.244,-0.261,0.874,-49.69,-68.62,-12.12,8.03,41.5,25856.0000000,57600.0000000
171,23.81,20.62,212.31,0.00,0.00,180.00,0.484,-0.328,0.689,-41.56,-66.81,-3.56,8.03,41.5,25856.0000000,57600.0000000
172,26.62,24.19,210.62,0.00,0.00,180.00,0.512,-0.328,0.651,-14.19,-12.12,27.00,8.03,41.5,25856.0000000,57600.0000000
173,26.31,27.62,209.69,0.00,0.00,180.00,0.372,-0.345,0.735,-47.25,-4.62,4.88,8.03,41.5,25856.0000000,57600.0000000
174,27.00,33.88,209.81,0.00,0.00,180.00,0.455,-0.462,0.718,-56.75,-11.75,17.62,8.03,41.5,25856.0000000,57600.0000000
175,24.69,37.56,208.19,0.00,0.00,180.00,0.431,-0.650,0.742,-0.56,32.94,47.88,8.03,41.5,25856.0000000,57600.0000000
176,15.19,32.19,202.94,0.00,0.00,180.00,0.306,-0.571,0.814,103.06,106.75,78.06,8.03,41.5,25856.0000000,57600.0000000
177,0.12,18.81,197.44,0.00,0.00,180.00,0.065,-0.352,0.796,169.75,158.06,75.69,8.03,41.5,25856.0000000,57600.0000000
178,-16.50,1.56,192.62,0.00,0.00,180.00,-0.314,0.007,0.820,151.75,149.56,60.69,8.01,29.0,25856.0000000,57600.0000000
179,-28.31,-12.50,190.38,0.00,0.00,180.00,-0.533,0.183,0.782,70.12,70.38,12.44,8.01,29.0,25856.0000000,57600.0000000
180,-32.38,-17.31,189.69,0.00,0.00,180.00,-0.687,0.260,0.842,14.25,24.94,-0.56,8.01,29.0,25856.0000000,57600.0000000
181,-31.88,-15.62,190.12,0.00,0.00,180.00,-0.711,0.281,0.879,-28.25,-40.25,-15.38,8.01,29.0,25856.0000000,57600.0000000
182,-25.62,-8.00,192.69,0.00,0.00,180.00,-0.631,0.191,0.929,-69.75,-103.00,-52.12,8.01,29.0,25856.0000000,57600.0000000
183,-12.50,2.94,198.38,0.00,0.00,180.00,-0.364,0.002,0.912,-95.81,-159.75,-86.62,8.01,29.0,25856.0000000,57600.0000000
184,3.12,11.44,204.94,0.00,0.00,180.00,0.045,-0.229,0.812,-73.69,-167.94,-77.12,8.01,29.0,25856.0000000,57600.0000000
185,17.06,15.56,209.50,0.00,0.00,180.00,0.374,-0.177,0.629,-10.88,-88.00,-8.12,8.01,29.0,25856.0000000,57600.0000000
186,17.88,16.00,207.12,0.00,0.00,180.00,0.377,-0.301,0.780,9.44,34.69,39.06,8.01,29.0,25856.0000000,57600.0000000
187,8.19,11.81,201.38,0.00,0.00,180.00,0.245,-0.370,0.883,88.88,123.12,66.44,8.01,29.0,25856.0000000,57600.0000000
188,-7.44,-1.19,195.06,0.00,0.00,180.00,-0.001,-0.023,0.785,161.25,176.31,78.50,8.01,29.0,25856.0000000,57600.0000000
189,-23.06,-18.44,189.69,0.00,0.00,180.00,-0.509,0.381,0.740,128.31,155.06,50.94,8.01,29.0,25856.0000000,57600.0000000
190,-30.31,-27.50,187.31,0.00,0.00,180.00,-0.792,0.517,0.798,10.94,29.94,-11.81,8.01,29.0,25856.0000000,57600.0000000
191,-29.38,-21.81,188.94,0.00,0.00,180.00,-0.806,0.443,0.911,-81.88,-67.44,-47.38,8.01,29.0,25856.0000000,57600.0000000
192,-19.00,-5.75,195.25,0.00,0.00,180.00,-0.444,0.140,0.872,-136.19,-173.69,-98.00,8.01,29.0,25856.0000000,57600.0000000
193,-3.12,6.31,201.94,0.00,0.00,180.00,0.132,-0.174,0.736,-49.88,-116.31,-32.19,8.01,29.0,25856.0000000,57600.0000000
194,-2.88,2.81,198.31,0.00,0.00,180.00,0.157,-0.040,0.823,76.88,82.94,75.25,8.01,29.0,25856.0000000,57600.0000000
195,-9.50,-1.00,195.31,0.00,0.00,180.00,-0.482,0.074,1.062,-9.19,9.94,-7.19,8.01,29.0,25856.0000000,57600.0000000
196,-5.44,2.44,195.94,0.00,0.00,180.00,-0.169,-0.008,0.931,-41.19,-61.50,-10.19,8.01,29.0,25856.0000000,57600.0000000
197,-1.62,4.06,193.50,0.00,0.00,180.00,0.070,-0.090,0.834,-7.38,-18.56,33.06,8.01,29.0,25856.0000000,57600.0000000
198,-1.94,4.12,190.62,0.00,0.00,180.00,0.076,-0.133,0.897,5.44,12.69,34.75,8.01,29.0,25856.0000000,57600.0000000
199,-4.31,4.06,188.75,0.00,0.00,180.00,-0.143,-0.189,1.008,-2.00,24.62,11.38,8.06,30.0,25856.0000000,57600.0000000
200,-5.19,3.75,188.69,0.00,0.00,180.00,-0.084,-0.028,0.961,0.25,1.31,-3.50,8.06,30.0,25856.0000000,57600.0000000
201,-5.62,4.00,188.56,0.00,0.00,180.00,-0.134,-0.060,0.989,-0.06,7.69,10.88,8.06,30.0,25856.0000000,57600.0000000
202,-6.50,3.75,187.62,0.00,0.00,180.00,-0.185,-0.095,0.972,3.56,6.06,9.62,8.06,30.0,25856.0000000,57600.0000000
203,-7.06,3.44,187.19,0.00,0.00,180.00,-0.155,-0.023,0.958,1.38,0.81,1.50,8.06,30.0,25856.0000000,57600.0000000
204,-7.19,3.62,187.12,0.00,0.00,180.00,-0.174,-0.093,0.946,-1.38,-1.06,-3.75,8.06,30.0,25856.0000000,57600.0000000
205,-7.44,3.44,186.81,0.00,0.00,180.00,-0.118,0.030,0.858,-0.75,8.19,6.69,8.06,30.0,25856.0000000,57600.0000000
206,-8.31,3.44,186.06,0.00,0.00,180.00,-0.162,-0.046,0.937,-4.38,3.00,7.25,8.06,30.0,25856.0000000,57600.0000000
207,-8.50,4.31,185.75,0.00,0.00,180.00,-0.165,-0.101,0.985,-11.00,0.31,3.94,8.06,30.0,25856.0000000,57600.0000000
208,-8.75,4.94,185.56,0.00,0.00,180.00,-0.188,-0.122,0.991,1.50,2.81,4.25,8.06,30.0,25856.0000000,57600.0000000
209,-8.88,4.69,185.38,0.00,0.00,180.00,-0.179,-0.055,0.949,-0.12,-2.19,0.94,8.06,30.0,25856.0000000,57600.0000000
210,-8.88,4.75,185.25,0.00,0.00,180.00,-0.167,-0.057,0.940,-5.88,-1.12,4.81,8.06,30.0,25856.0000000,57600.0000000
211,-8.88,5.56,184.75,0.00,0.00,180.00,-0.183,-0.112,0.966,-9.25,-5.69,4.38,8.06,30.0,25856.0000000,57600.0000000
212,-8.31,6.44,184.38,0.00,0.00,180.00,-0.134,-0.115,0.950,-5.75,-8.88,0.50,8.06,30.0,25856.0000000,57600.0000000
213,-8.00,6.62,184.19,0.00,0.00,180.00,-0.143,-0.131,0.944,2.12,0.56,7.00,8.06,30.0,25856.0000000,57600.0000000
214,-8.12,6.44,183.88,0.00,0.00,180.00,-0.147,-0.124,0.945,4.50,0.69,5.31,8.06,30.0,25856.0000000,57600.0000000
215,-8.19,6.06,183.62,0.00,0.00,180.00,-0.144,-0.092,0.942,0.94,2.88,4.12,8.06,30.0,25856.0000000,57600.0000000
216,-8.44,6.00,183.50,0.00,0.00,180.00,-0.161,-0.094,0.943,1.50,0.19,-0.25,8.06,30.0,25856.0000000,57600.0000000
217,-8.50,6.06,183.44,0.00,0.00,180.00,-0.162,-0.093,0.957,-5.19,-3.69,-2.25,8.06,30.0,25856.0000000,57600.0000000
218,-8.19,6.56,183.56,0.00,0.00,180.00,-0.152,-0.116,0.943,-2.94,-1.62,0.69,8.06,30.0,25856.0000000,57600.0000000
219,-8.25,6.50,183.44,0.00,0.00,180.00,-0.147,-0.108,0.939,3.69,0.12,3.62,8.13,41.0,25856.0000000,57600.0000000
220,-8.31,6.38,183.31,0.00,0.00,180.00,-0.183,0.024,0.918,-0.12,-1.25,2.88,8.13,41.0,25856.0000000,57600.0000000
221,-8.25,7.62,182.69,0.00,0.00,180.00,-0.200,-0.214,0.989,-20.50,-2.19,5.25,8.13,41.0,25856.0000000,57600.0000000
222,-7.19,8.25,182.56,0.00,0.00,180.00,-0.058,-0.163,0.959,1.50,-11.75,1.31,8.13,41.0,25856.0000000,57600.0000000
223,-7.25,7.69,182.44,0.00,0.00,180.00,-0.158,-0.146,0.944,6.81,4.88,-1.00,8.13,41.0,25856.0000000,57600.0000000
224,-7.19,7.06,182.69,0.00,0.00,180.00,-0.123,-0.076,0.930,2.06,-3.50,-4.69,8.13,41.0,25856.0000000,57600.0000000
225,-7.12,7.06,182.69,0.00,0.00,180.00,-0.149,-0.107,0.949,-3.50,-0.25,0.00,8.13,41.0,25856.0000000,57600.0000000
226,-6.94,7.44,182.56,0.00,0.00,180.00,-0.139,-0.133,0.960,-4.94,-6.50,-1.31,8.13,41.0,25856.0000000,57600.0000000
227,-6.38,7.50,182.56,0.00,0.00,180.00,-0.100,-0.122,0.946,1.69,-3.88,0.31,8.13,41.0,25856.0000000,57600.0000000
228,-6.31,7.19,182.38,0.00,0.00,180.00,-0.094,-0.103,0.935,0.81,0.44,1.19,8.13,41.0,25856.0000000,57600.0000000
229,-6.25,7.44,182.19,0.00,0.00,180.00,-0.121,-0.133,0.945,-6.62,-3.75,-2.81,8.13,41.0,25856.0000000,57600.0000000
230,-5.81,7.94,182.25,0.00,0.00,180.00,-0.090,-0.141,0.943,-2.12,-3.19,-0.94,8.13,41.0,25856.0000000,57600.0000000
231,-5.62,7.88,182.25,0.00,0.00,180.00,-0.093,-0.136,0.952,1.06,-1.12,-2.25,8.13,41.0,25856.0000000,57600.0000000
232,-5.56,7.69,182.38,0.00,0.00,180.00,-0.101,-0.127,0.952,2.94,-0.75,-2.38,8.13,41.0,25856.0000000,57600.0000000
233,-5.56,7.44,182.56,0.00,0.00,180.00,-0.106,-0.109,0.945,2.56,-1.56,-0.50,8.13,41.0,25856.0000000,57600.0000000
234,-5.31,7.44,182.56,0.00,0.00,180.00,-0.131,-0.186,1.000,-1.31,-5.50,-1.50,8.13,41.0,25856.0000000,57600.0000000
235,-3.38,7.00,184.56,0.00,0.00,180.00,-0.073,-0.298,1.028,21.00,-22.94,-33.69,8.13,41.0,25856.0000000,57600.0000000
236,-1.50,3.44,188.50,0.00,0.00,180.00,0.051,-0.028,0.940,38.88,-8.81,-47.06,8.13,41.0,25856.0000000,57600.0000000
237,0.00,2.19,193.19,0.00,0.00,180.00,-0.055,-0.090,1.027,-9.06,-31.94,-75.81,8.13,41.0,25856.0000000,57600.0000000
238,5.50,2.88,201.31,0.00,0.00,180.00,0.169,-0.142,0.853,-5.44,-52.19,-97.56,8.13,41.0,25856.0000000,57600.0000000
239,6.38,0.06,206.38,0.00,0.00,180.00,0.080,0.129,0.828,30.56,22.88,-15.50,8.10,27.5,25856.0000000,57600.0000000
240,6.19,-0.12,209.88,0.00,0.00,180.00,0.007,0.022,0.968,-7.00,-32.00,-26.88,8.10,27.5,25856.0000000,57600.0000000
241,9.50,0.50,215.00,0.00,0.00,180.00,0.148,-0.045,0.955,-8.44,-19.38,-61.62,8.10,27.5,25856.0000000,57600.0000000
242,9.69,-1.19,224.19,0.00,0.00,180.00,0.122,-0.009,0.990,17.38,15.19,-108.62,8.10,27.5,25856.0000000,57600.0000000
243,7.62,-5.25,233.19,0.00,0.00,180.00,0.033,0.098,0.968,9.81,1.06,-144.94,8.10,27.5,25856.0000000,57600.0000000
244,6.38,-8.94,243.19,0.00,0.00,180.00,0.112,0.150,0.883,22.62,-2.06,-94.81,8.10,27.5,25856.0000000,57600.0000000
245,4.44,-11.38,253.69,0.00,0.00,180.00,0.125,0.214,0.830,33.25,11.50,-69.38,8.10,27.5,25856.0000000,57600.0000000
246,1.06,-12.25,262.44,0.00,0.00,180.00,-0.124,0.474,0.864,-20.06,24.75,-69.56,8.10,27.5,25856.0000000,57600.0000000
247,-1.25,-7.94,270.00,0.00,0.00,180.00,0.147,-0.016,0.928,-45.56,9.19,-113.62,8.10,27.5,25856.0000000,57600.0000000
248,-4.88,-4.00,283.19,0.00,0.00,180.00,-0.078,0.076,0.907,-51.75,22.12,-181.88,8.10,27.5,25856.0000000,57600.0000000
249,-6.75,2.56,298.19,0.00,0.00,180.00,-0.632,-0.266,1.191,-17.38,-6.50,-77.25,8.10,27.5,25856.0000000,57600.0000000
250,-5.44,3.00,304.12,0.00,0.00,180.00,0.004,-0.030,0.918,-8.94,1.19,-60.00,8.10,27.5,25856.0000000,57600.0000000
251,-6.12,4.38,307.50,0.00,0.00,180.00,-0.200,0.048,1.030,-18.50,8.06,-16.81,8.10,27.5,25856.0000000,57600.0000000
252,-5.25,6.19,307.81,0.00,0.00,180.00,-0.071,-0.167,0.886,-7.12,-9.00,5.94,8.10,27.5,25856.0000000,57600.0000000
253,-4.56,4.88,307.19,0.00,0.00,180.00,-0.088,-0.043,0.957,18.62,-11.06,1.06,8.10,27.5,25856.0000000,57600.0000000
254,-3.56,3.38,307.50,0.00,0.00,180.00,-0.073,-0.083,0.949,21.56,-7.94,-6.06,8.10,27.5,25856.0000000,57600.0000000
255,-2.00,1.81,307.56,0.00,0.00,180.00,-0.105,-0.028,0.947,4.44,-15.06,0.69,8.10,27.5,25856.0000000,57600.0000000
0,0.12,1.19,306.75,0.00,0.00,180.00,0.000,-0.100,0.983,17.75,-22.69,17.44,8.10,27.5,25856.0000000,57600.0000000
1,2.31,-1.19,305.56,0.00,0.00,180.00,-0.034,0.092,1.033,26.75,-25.31,6.50,8.10,27.5,25856.0000000,57600.0000000
2,5.69,-3.12,303.50,0.00,0.00,180.00,0.009,0.126,0.939,15.81,-38.12,30.50,8.10,27.5,25856.0000000,57600.0000000
3,9.69,-4.25,301.12,0.00,0.00,180.00,0.121,0.003,0.928,20.31,-42.31,21.69,8.10,27.5,25856.0000000,57600.0000000
4,14.00,-6.50,299.12,0.00,0.00,180.00,0.207,0.045,0.923,39.31,-46.62,21.25,8.09,29.5,25856.0000000,57600.0000000
5,18.31,-10.56,296.19,0.00,0.00,180.00,0.353,0.218,0.893,51.62,-33.31,30.44,8.09,29.5,25856.0000000,57600.0000000
6,20.50,-13.69,291.62,0.00,0.00,180.00,0.469,0.321,0.857,36.31,-0.50,44.25,8.09,29.5,25856.0000000,57600.0000000
7,20.56,-15.00,286.31,0.00,0.00,180.00,0.421,0.289,0.844,13.69,43.69,50.06,8.09,29.5,25856.0000000,57600.0000000
8,15.56,-13.50,281.06,0.00,0.00,180.00,0.263,0.270,0.830,-8.50,78.44,32.75,8.09,29.5,25856.0000000,57600.0000000
9,8.38,-10.00,278.38,0.00,0.00,180.00,-0.039,0.311,0.947,-37.69,70.44,29.25,8.09,29.5,25856.0000000,57600.0000000
10,4.88,-5.00,274.81,0.00,0.00,180.00,-0.086,0.160,0.983,-45.56,20.50,39.19,8.09,29.5,25856.0000000,57600.0000000
11,5.44,-2.44,269.50,0.00,0.00,180.00,-0.001,0.034,0.998,-9.31,-23.19,75.94,8.09,29.5,25856.0000000,57600.0000000
12,9.38,-1.56,262.19,0.00,0.00,180.00,0.180,-0.075,0.954,12.31,-37.69,85.81,8.09,29.5,25856.0000000,57600.0000000
13,11.56,-2.50,250.88,0.00,0.00,180.00,0.148,0.075,0.986,30.19,-10.56,141.44,8.09,29.5,25856.0000000,57600.0000000
14,13.25,-2.19,238.38,0.00,0.00,180.00,0.102,-0.047,0.951,30.06,-21.19,117.81,8.09,29.5,25856.0000000,57600.0000000
15,15.94,-2.25,229.62,0.00,0.00,180.00,0.251,-0.019,0.858,11.81,-23.44,53.75,8.09,29.5,25856.0000000,57600.0000000
16,16.44,-2.69,223.38,0.00,0.00,180.00,0.379,0.020,0.795,22.88,25.19,53.56,8.09,29.5,25856.0000000,57600.0000000
17,12.75,-3.62,217.56,0.00,0.00,180.00,0.207,0.109,0.937,29.31,47.12,63.94,8.09,29.5,25856.0000000,57600.0000000
18,8.12,-3.94,210.31,0.00,0.00,180.00,0.073,0.151,0.959,14.69,55.56,89.38,8.09,29.5,25856.0000000,57600.0000000
19,2.50,-1.88,202.69,0.00,0.00,180.00,-0.137,-0.033,0.939,-15.38,65.31,84.62,8.09,29.5,25856.0000000,57600.0000000
20,-3.38,-2.69,195.69,0.00,0.00,180.00,-0.126,-0.085,0.844,12.56,75.19,50.56,8.09,29.5,25856.0000000,57600.0000000
21,-13.00,-6.56,189.75,0.00,0.00,180.00,-0.194,0.045,0.778,32.25,123.44,40.12,8.09,29.5,25856.0000000,57600.0000000
22,-25.12,-13.06,183.88,0.00,0.00,180.00,-0.454,0.115,0.862,51.44,140.12,77.88,8.09,29.5,25856.0000000,57600.0000000
23,-34.81,-22.81,178.44,0.00,0.00,180.00,-0.628,0.266,0.749,55.62,109.62,58.38,8.09,29.5,25856.0000000,57600.0000000
24,-41.31,-32.69,174.38,0.00,0.00,180.00,-0.677,0.413,0.599,44.94,89.31,46.38,8.14,39.5,25856.0000000,57600.0000000
25,-45.31,-44.56,169.56,0.00,0.00,180.00,-0.727,0.497,0.456,49.31,87.25,47.38,8.14,39.5,25856.0000000,57600.0000000
26,-47.06,-56.19,165.25,0.00,0.00,180.00,-0.799,0.628,0.355,34.06,65.50,31.38,8.14,39.5,25856.0000000,57600.0000000
27,-47.06,-62.81,162.12,0.00,0.00,180.00,-0.816,0.674,0.296,1.81,13.06,-4.88,8.14,39.5,25856.0000000,57600.0000000
28,-47.62,-58.25,162.75,0.00,0.00,180.00,-0.878,0.572,0.402,-38.44,-32.31,-29.38,8.14,39.5,25856.0000000,57600.0000000
29,-47.25,-45.75,166.00,0.00,0.00,180.00,-0.804,0.555,0.485,-65.44,-70.00,-40.88,8.14,39.5,25856.0000000,57600.0000000
30,-42.88,-30.62,170.62,0.00,0.00,180.00,-0.726,0.510,0.650,-50.12,-114.81,-60.06,8.14,39.5,25856.0000000,57600.0000000
31,-34.19,-16.31,176.19,0.00,0.00,180.00,-0.583,0.259,0.725,-75.31,-137.19,-86.62,8.14,39.5,25856.0000000,57600.0000000
32,-21.69,-4.50,183.06,0.00,0.00,180.00,-0.405,0.071,0.853,-61.81,-151.88,-86.75,8.14,39.5,25856.0000000,57600.0000000
33,-7.50,2.75,189.56,0.00,0.00,180.00,-0.155,-0.066,0.855,-49.56,-144.56,-53.31,8.14,39.5,25856.0000000,57600.0000000
34,4.56,6.94,194.50,0.00,0.00,180.00,0.051,-0.228,0.796,-22.81,-114.88,-44.69,8.14,39.5,25856.0000000,57600.0000000
35,15.50,6.50,200.44,0.00,0.00,180.00,0.324,-0.098,0.821,-7.69,-86.25,-60.69,8.14,39.5,25856.0000000,57600.0000000
36,22.25,5.50,206.75,0.00,0.00,180.00,0.402,-0.075,0.916,-27.06,-53.44,-96.50,8.14,39.5,25856.0000000,57600.0000000
37,27.50,4.88,213.75,0.00,0.00,180.00,0.389,0.000,0.918,-55.38,-69.62,-89.31,8.14,39.5,25856.0000000,57600.0000000
38,35.75,6.44,222.62,0.00,0.00,180.00,0.483,0.023,0.854,-30.12,-62.56,-44.75,8.14,39.5,25856.0000000,57600.0000000
39,40.44,5.31,227.88,0.00,0.00,180.00,0.452,0.029,0.793,-3.50,-40.50,-6.19,8.14,39.5,25856.0000000,57600.0000000
40,48.75,6.81,230.38,0.00,0.00,180.00,0.421,-0.096,0.368,-50.56,-142.69,-9.81,8.14,39.5,25856.0000000,57600.0000000
41,60.00,15.00,227.75,0.00,0.00,180.00,0.919,-0.086,0.587,29.38,-87.56,61.94,8.14,39.5,25856.0000000,57600.0000000
42,60.75,18.00,220.62,0.00,0.00,180.00,0.886,-0.163,0.435,61.25,11.12,42.50,8.14,39.5,25856.0000000,57600.0000000
43,54.75,13.00,212.62,0.00,0.00,180.00,0.845,-0.240,0.462,122.31,91.06,41.06,8.14,39.5,25856.0000000,57600.0000000
44,40.31,-0.62,203.25,0.00,0.00,180.00,0.746,0.056,0.567,160.12,181.75,11.19,8.03,28.5,25856.0000000,57600.0000000
45,18.56,-12.19,202.38,0.00,0.00,180.00,0.219,0.243,0.915,18.94,160.50,-71.56,8.03,28.5,25856.0000000,57600.0000000
46,7.75,-13.69,205.69,0.00,0.00,180.00,0.101,0.191,0.843,8.06,58.12,-33.31,8.03,28.5,25856.0000000,57600.0000000
47,1.50,-10.50,210.00,0.00,0.00,180.00,-0.009,0.230,0.859,-51.44,71.81,-29.06,8.03,28.5,25856.0000000,57600.0000000
48,-5.75,-7.62,209.31,0.00,0.00,180.00,-0.166,0.152,0.885,-19.25,85.44,5.94,8.03,28.5,25856.0000000,57600.0000000
49,-15.31,-7.62,207.88,0.00,0.00,180.00,-0.375,0.208,0.906,9.25,109.19,19.00,8.03,28.5,25856.0000000,57600.0000000
50,-25.69,-11.75,204.44,0.00,0.00,180.00,-0.565,0.256,0.806,34.25,109.81,38.31,8.03,28.5,25856.0000000,57600.0000000
51,-33.62,-19.94,199.81,0.00,0.00,180.00,-0.614,0.371,0.745,50.31,108.69,58.75,8.03,28.5,25856.0000000,57600.0000000
52,-40.88,-33.88,192.56,0.00,0.00,180.00,-0.705,0.421,0.587,72.44,130.94,86.56,8.03,28.5,25856.0000000,57600.0000000
53,-44.06,-53.75,183.75,0.00,0.00,180.00,-0.729,0.629,0.408,62.31,109.44,77.31,8.03,28.5,25856.0000000,57600.0000000
54,-42.81,-66.50,174.81,0.00,0.00,180.00,-0.718,0.569,0.280,7.00,67.62,44.75,8.03,28.5,25856.0000000,57600.0000000
55,-40.44,-75.75,167.38,0.00,0.00,180.00,-0.638,0.670,0.178,39.31,71.69,47.75,8.03,28.5,25856.0000000,57600.0000000
56,-36.44,-86.25,159.81,0.00,0.00,180.00,-0.640,0.797,0.085,38.12,58.62,44.44,8.03,28.5,25856.0000000,57600.0000000
57,-33.62,-89.62,154.62,0.00,0.00,180.00,-0.684,0.779,0.060,-8.12,21.75,26.25,8.03,28.5,25856.0000000,57600.0000000
58,-32.94,-85.25,153.94,0.00,0.00,180.00,-0.632,0.911,0.156,-58.31,-51.44,-5.75,8.03,28.5,25856.0000000,57600.0000000
59,-34.19,-69.62,158.94,0.00,0.00,180.00,-0.731,0.821,0.368,-117.56,-135.69,-58.94,8.03,28.5,25856.0000000,57600.0000000
60,-30.69,-46.06,167.62,0.00,0.00,180.00,-0.627,0.656,0.520,-142.88,-182.75,-71.06,8.03,28.5,25856.0000000,57600.0000000
61,-19.88,-25.12,176.44,0.00,0.00,180.00,-0.330,0.510,0.653,-133.69,-177.56,-68.44,8.03,28.5,25856.0000000,57600.0000000
62,-6.00,-10.62,184.06,0.00,0.00,180.00,-0.129,0.246,0.798,-96.69,-158.94,-55.38,8.03,28.5,25856.0000000,57600.0000000
63,6.94,-2.12,191.44,0.00,0.00,180.00,0.080,0.073,0.852,-83.75,-126.00,-72.81,8.03,28.5,25856.0000000,57600.0000000
64,17.50,2.56,199.12,0.00,0.00,180.00,0.216,0.034,0.856,-58.38,-94.12,-89.94,8.03,28.5,25856.0000000,57600.0000000
65,24.31,3.38,204.56,0.00,0.00,180.00,0.469,0.010,0.796,-27.88,-43.56,-74.25,8.06,28.5,25856.0000000,57600.0000000
66,27.19,3.00,211.25,0.00,0.00,180.00,0.445,-0.004,0.928,-30.06,-21.25,-75.06,8.06,28.5,25856.0000000,57600.0000000
67,29.50,2.12,215.94,0.00,0.00,180.00,0.439,0.110,0.893,-9.62,-28.69,-23.62,8.06,28.5,25856.0000000,57600.0000000
68,32.12,2.62,216.81,0.00,0.00,180.00,0.467,0.028,0.791,-4.44,-25.12,4.25,8.06,28.5,25856.0000000,57600.0000000
69,33.19,2.69,217.81,0.00,0.00,180.00,0.557,-0.087,0.717,4.62,10.75,-8.06,8.06,28.5,25856.0000000,57600.0000000
70,29.44,-0.31,217.88,0.00,0.00,180.00,0.523,0.011,0.757,34.50,49.75,-11.75,8.06,28.5,25856.0000000,57600.0000000
71,23.75,-3.50,219.44,0.00,0.00,180.00,0.496,0.046,0.929,20.00,60.50,-22.19,8.06,28.5,25856.0000000,57600.0000000
72,17.19,-6.62,222.06,0.00,0.00,180.00,0.303,0.033,0.987,32.44,57.25,-45.75,8.06,28.5,25856.0000000,57600.0000000
73,13.94,-12.44,225.81,0.00,0.00,180.00,0.260,0.336,0.821,53.06,11.25,-39.25,8.06,28.5,25856.0000000,57600.0000000
74,12.44,-15.12,227.75,0.00,0.00,180.00,0.159,0.303,0.874,9.69,13.62,-20.25,8.06,28.5,25856.0000000,57600.0000000
75,11.50,-16.50,226.56,0.00,0.00,180.00,0.021,0.262,0.929,18.56,9.00,7.56,8.06,28.5,25856.0000000,57600.0000000
76,10.38,-19.56,221.31,0.00,0.00,180.00,0.134,0.369,0.806,61.81,60.69,69.69,8.06,28.5,25856.0000000,57600.0000000
77,6.88,-27.69,210.06,0.00,0.00,180.00,0.105,0.516,0.728,134.38,84.44,106.56,8.06,28.5,25856.0000000,57600.0000000
78,4.75,-40.00,196.50,0.00,0.00,180.00,-0.110,0.710,0.717,134.25,87.00,89.75,8.06,28.5,25856.0000000,57600.0000000
79,5.94,-48.56,188.00,0.00,0.00,180.00,0.071,0.778,0.647,58.00,24.62,41.12,8.06,28.5,25856.0000000,57600.0000000
80,7.00,-51.94,184.12,0.00,0.00,180.00,0.063,0.755,0.632,30.06,9.94,23.38,8.06,28.5,25856.0000000,57600.0000000
81,7.25,-51.56,185.00,0.00,0.00,180.00,0.077,0.793,0.612,-36.94,-26.94,-24.06,8.06,28.5,25856.0000000,57600.0000000
82,5.50,-42.75,196.50,0.00,0.00,180.00,0.070,0.704,0.659,-163.00,-95.62,-128.00,8.06,28.5,25856.0000000,57600.0000000
83,5.88,-24.81,218.38,0.00,0.00,180.00,0.021,0.526,0.762,-215.75,-124.75,-182.31,8.06,28.5,25856.0000000,57600.0000000
84,12.88,-9.38,234.94,0.00,0.00,180.00,0.148,0.182,0.921,-175.75,-111.19,-164.75,8.06,28.5,25856.0000000,57600.0000000
85,21.44,-0.19,248.00,0.00,0.00,180.00,0.389,-0.026,0.853,-109.50,-83.19,-115.31,8.00,41.0,25856.0000000,57600.0000000
86,27.69,2.12,256.94,0.00,0.00,180.00,0.426,-0.051,0.776,-28.69,-51.81,-66.81,8.00,41.0,25856.0000000,57600.0000000
87,32.06,1.75,261.25,0.00,0.00,180.00,0.495,-0.038,0.842,-10.38,-41.31,-5.75,8.00,41.0,25856.0000000,57600.0000000
88,37.50,2.62,263.00,0.00,0.00,180.00,0.566,-0.034,0.867,-9.00,-67.44,5.88,8.00,41.0,25856.0000000,57600.0000000
89,42.69,3.56,259.88,0.00,0.00,180.00,0.766,0.063,0.671,34.81,-50.50,49.75,8.00,41.0,25856.0000000,57600.0000000
90,43.75,7.50,248.88,0.00,0.00,180.00,1.009,0.033,0.598,51.88,38.88,101.81,8.00,41.0,25856.0000000,57600.0000000
91,33.81,7.06,239.81,0.00,0.00,180.00,0.593,-0.173,0.682,92.50,127.12,76.25,8.00,41.0,25856.0000000,57600.0000000
92,18.19,-3.50,228.69,0.00,0.00,180.00,0.375,0.091,0.757,161.75,170.81,65.56,8.00,41.0,25856.0000000,57600.0000000
93,5.50,-15.00,219.31,0.00,0.00,180.00,-0.013,0.456,0.876,98.75,110.44,81.00,8.00,41.0,25856.0000000,57600.0000000
94,1.56,-18.12,212.12,0.00,0.00,180.00,-0.130,0.369,0.935,1.81,24.19,49.50,8.00,41.0,25856.0000000,57600.0000000
95,2.12,-16.19,208.62,0.00,0.00,180.00,-0.027,0.338,0.931,-31.50,-0.62,25.31,8.00,41.0,25856.0000000,57600.0000000
96,3.00,-13.75,206.44,0.00,0.00,180.00,0.073,0.228,0.883,-25.06,-4.00,13.81,8.00,41.0,25856.0000000,57600.0000000
97,2.69,-11.81,205.75,0.00,0.00,180.00,0.027,0.181,0.910,-5.75,9.12,16.38,8.00,41.0,25856.0000000,57600.0000000
98,1.56,-11.25,204.75,0.00,0.00,180.00,-0.034,0.206,0.961,-2.31,16.19,16.81,8.00,41.0,25856.0000000,57600.0000000
99,0.50,-10.69,203.19,0.00,0.00,180.00,-0.080,0.227,0.980,-10.81,13.69,13.12,8.00,41.0,25856.0000000,57600.0000000
100,0.50,-9.38,201.06,0.00,0.00,180.00,-0.010,0.169,0.957,-23.12,-3.75,6.00,8.00,41.0,25856.0000000,57600.0000000
101,1.06,-8.00,200.50,0.00,0.00,180.00,0.008,0.095,0.963,-4.94,-9.38,-1.94,8.00,41.0,25856.0000000,57600.0000000
102,1.56,-8.06,201.06,0.00,0.00,180.00,-0.041,0.110,0.978,7.56,-5.31,1.25,8.00,41.0,25856.0000000,57600.0000000
103,2.56,-8.50,202.00,0.00,0.00,180.00,0.033,0.171,0.945,1.38,-9.44,-5.50,8.00,41.0,25856.0000000,57600.0000000
104,3.31,-8.19,202.62,0.00,0.00,180.00,0.039,0.142,0.937,-13.06,-14.00,-19.62,8.00,41.0,25856.0000000,57600.0000000
105,4.56,-7.06,204.44,0.00,0.00,180.00,0.111,0.094,0.932,-9.62,-16.12,-21.38,8.13,30.0,25856.0000000,57600.0000000
106,6.19,-6.19,207.88,0.00,0.00,180.00,0.129,0.050,1.000,-6.88,-13.19,-30.19,8.13,30.0,25856.0000000,57600.0000000
107,6.81,-7.50,210.69,0.00,0.00,180.00,0.106,0.128,0.954,23.50,-9.56,-24.50,8.13,30.0,25856.0000000,57600.0000000
108,7.12,-9.75,213.19,0.00,0.00,180.00,0.129,0.245,0.896,8.50,-4.81,-31.81,8.13,30.0,25856.0000000,57600.0000000
109,7.25,-10.00,215.88,0.00,0.00,180.00,0.065,0.224,0.923,-7.06,-9.44,-27.62,8.13,30.0,25856.0000000,57600.0000000
110,7.62,-9.50,218.56,0.00,0.00,180.00,0.086,0.200,0.929,-16.44,-14.38,-22.81,8.13,30.0,25856.0000000,57600.0000000
111,8.31,-8.56,220.31,0.00,0.00,180.00,0.101,0.161,0.947,-11.25,-9.56,-13.31,8.13,30.0,25856.0000000,57600.0000000
112,8.38,-8.25,221.44,0.00,0.00,180.00,0.091,0.175,0.986,-3.38,-7.25,-3.19,8.13,30.0,25856.0000000,57600.0000000
113,9.31,-8.12,221.69,0.00,0.00,180.00,0.130,0.163,0.929,-3.25,-17.31,-1.19,8.13,30.0,25856.0000000,57600.0000000
114,10.50,-8.00,221.06,0.00,0.00,180.00,0.176,0.163,0.888,1.00,-3.75,11.19,8.13,30.0,25856.0000000,57600.0000000
115,10.19,-8.75,218.56,0.00,0.00,180.00,0.122,0.151,0.931,18.19,9.62,25.56,8.13,30.0,25856.0000000,57600.0000000
116,10.06,-9.62,215.38,0.00,0.00,180.00,0.225,0.186,0.943,10.25,6.88,33.38,8.13,30.0,25856.0000000,57600.0000000
117,10.19,-9.75,213.12,0.00,0.00,180.00,0.200,0.167,0.918,3.88,-0.88,18.50,8.13,30.0,25856.0000000,57600.0000000
118,10.31,-9.38,211.56,0.00,0.00,180.00,0.214,0.091,0.890,-5.25,2.81,10.12,8.13,30.0,25856.0000000,57600.0000000
119,10.50,-9.06,211.38,0.00,0.00,180.00,0.213,0.113,0.923,5.69,-2.12,-4.06,8.13,30.0,25856.0000000,57600.0000000
120,11.25,-9.44,211.94,0.00,0.00,180.00,0.303,0.147,0.925,-3.00,-10.00,-10.12,8.13,30.0,25856.0000000,57600.0000000
121,11.44,-9.62,213.44,0.00,0.00,180.00,0.177,0.119,0.939,7.44,-5.50,-14.12,8.13,30.0,25856.0000000,57600.0000000
122,11.75,-10.62,214.69,0.00,0.00,180.00,0.206,0.176,0.899,0.69,-4.38,-17.25,8.13,30.0,25856.0000000,57600.0000000
123,12.06,-10.50,217.06,0.00,0.00,180.00,0.243,0.180,0.925,-9.31,-8.06,-24.44,8.13,30.0,25856.0000000,57600.0000000
124,12.06,-10.56,219.31,0.00,0.00,180.00,0.140,0.164,0.956,3.12,-6.75,-20.62,8.13,30.0,25856.0000000,57600.0000000
125,12.75,-11.44,221.19,0.00,0.00,180.00,0.185,0.232,0.900,2.56,-9.75,-14.00,8.13,30.0,25856.0000000,57600.0000000
126,13.25,-11.62,222.38,0.00,0.00,180.00,0.203,0.220,0.856,-3.00,-6.81,-6.00,8.10,27.5,25856.0000000,57600.0000000
127,13.06,-11.50,222.25,0.00,0.00,180.00,0.161,0.207,0.900,-3.12,4.88,2.88,8.10,27.5,25856.0000000,57600.0000000
128,12.94,-11.12,221.31,0.00,0.00,180.00,0.212,0.213,0.918,-3.56,3.31,13.56,8.10,27.5,25856.0000000,57600.0000000
129,12.62,-10.38,220.06,0.00,0.00,180.00,0.182,0.174,0.924,-0.38,5.25,19.75,8.10,27.5,25856.0000000,57600.0000000
130,12.38,-10.12,218.12,0.00,0.00,180.00,0.192,0.183,0.911,-1.00,8.25,19.62,8.10,27.5,25856.0000000,57600.0000000
131,12.19,-9.50,216.00,0.00,0.00,180.00,0.231,0.165,0.919,-4.44,4.81,21.75,8.10,27.5,25856.0000000,57600.0000000
132,11.94,-8.31,214.44,0.00,0.00,180.00,0.205,0.082,0.933,-5.38,2.50,14.19,8.10,27.5,25856.0000000,57600.0000000
133,12.06,-8.19,213.69,0.00,0.00,180.00,0.274,0.062,0.928,1.19,-1.12,-0.12,8.10,27.5,25856.0000000,57600.0000000
134,12.38,-8.62,213.94,0.00,0.00,180.00,0.268,0.107,0.933,12.88,0.00,-10.06,8.10,27.5,25856.0000000,57600.0000000
135,12.31,-10.06,215.25,0.00,0.00,180.00,0.193,0.151,0.918,14.44,-3.75,-15.06,8.10,27.5,25856.0000000,57600.0000000
136,12.94,-11.56,217.12,0.00,0.00,180.00,0.240,0.214,0.894,4.75,-13.56,-20.81,8.10,27.5,25856.0000000,57600.0000000
137,13.81,-11.88,220.06,0.00,0.00,180.00,0.208,0.251,0.878,-9.88,-16.06,-26.75,8.10,27.5,25856.0000000,57600.0000000
138,15.19,-10.69,223.44,0.00,0.00,180.00,0.259,0.176,0.885,-27.69,-19.50,-30.25,8.10,27.5,25856.0000000,57600.0000000
139,15.88,-9.69,225.69,0.00,0.00,180.00,0.292,0.135,0.879,-4.12,-1.06,-9.62,8.10,27.5,25856.0000000,57600.0000000
140,15.19,-10.12,226.44,0.00,0.00,180.00,0.234,0.171,0.899,4.38,8.44,-4.81,8.10,27.5,25856.0000000,57600.0000000
141,14.38,-10.38,226.62,0.00,0.00,180.00,0.202,0.202,0.918,-5.94,1.94,-3.31,8.10,27.5,25856.0000000,57600.0000000
142,14.06,-9.94,226.69,0.00,0.00,180.00,0.201,0.178,0.920,-5.62,2.06,6.75,8.10,27.5,25856.0000000,57600.0000000
143,14.00,-9.25,225.94,0.00,0.00,180.00,0.200,0.160,0.935,-7.75,-0.94,12.31,8.10,27.5,25856.0000000,57600.0000000
144,14.44,-8.12,224.81,0.00,0.00,180.00,0.266,0.139,0.902,-11.69,-2.94,12.50,8.10,27.5,25856.0000000,57600.0000000
145,14.69,-6.94,223.50,0.00,0.00,180.00,0.265,0.099,0.902,-5.38,0.62,16.44,8.10,27.5,25856.0000000,57600.0000000
146,14.94,-5.88,222.12,0.00,0.00,180.00,0.270,0.069,0.910,-8.88,-1.31,11.06,8.07,43.0,25856.0000000,57600.0000000
147,15.19,-4.81,221.25,0.00,0.00,180.00,0.295,-0.001,0.895,0.31,1.06,10.50,8.07,43.0,25856.0000000,57600.0000000
148,14.81,-5.44,220.44,0.00,0.00,180.00,0.275,0.072,0.917,18.44,11.44,2.88,8.07,43.0,25856.0000000,57600.0000000
149,14.06,-6.62,220.38,0.00,0.00,180.00,0.229,0.126,0.928,7.00,4.56,-2.88,8.07,43.0,25856.0000000,57600.0000000
150,14.12,-6.81,220.75,0.00,0.00,180.00,0.252,0.118,0.908,-1.75,-3.50,-2.31,8.07,43.0,25856.0000000,57600.0000000
151,14.12,-6.81,221.00,0.00,0.00,180.00,0.238,0.121,0.920,0.25,2.69,-1.75,8.07,43.0,25856.0000000,57600.0000000
152,13.88,-6.88,221.25,0.00,0.00,180.00,0.230,0.111,0.918,0.69,0.88,-2.69,8.07,43.0,25856.0000000,57600.0000000
153,13.69,-7.00,221.62,0.00,0.00,180.00,0.221,0.124,0.929,1.12,3.31,-4.00,8.07,43.0,25856.0000000,57600.0000000
154,13.44,-7.06,221.88,0.00,0.00,180.00,0.200,0.129,0.936,-3.12,-0.88,-3.69,8.07,43.0,25856.0000000,57600.0000000
155,13.62,-6.62,222.06,0.00,0.00,180.00,0.225,0.103,0.912,-5.00,-0.81,-1.19,8.07,43.0,25856.0000000,57600.0000000
156,13.56,-6.25,222.31,0.00,0.00,180.00,0.230,0.096,0.912,-1.31,1.75,0.94,8.07,43.0,25856.0000000,57600.0000000
157,13.19,-6.19,222.31,0.00,0.00,180.00,0.206,0.087,0.934,1.00,3.81,0.25,8.07,43.0,25856.0000000,57600.0000000
158,13.12,-6.38,222.12,0.00,0.00,180.00,0.221,0.100,0.919,0.44,-0.38,1.25,8.07,43.0,25856.0000000,57600.0000000
159,13.38,-6.12,222.06,0.00,0.00,180.00,0.248,0.100,0.895,-3.00,-2.19,1.94,8.07,43.0,25856.0000000,57600.0000000
160,13.25,-5.81,221.94,0.00,0.00,180.00,0.213,0.087,0.925,-1.06,3.19,2.19,8.07,43.0,25856.0000000,57600.0000000
161,12.94,-5.62,221.88,0.00,0.00,180.00,0.184,0.086,0.945,-2.25,3.31,0.56,8.07,43.0,25856.0000000,57600.0000000
162,13.06,-5.56,221.62,0.00,0.00,180.00,0.235,0.107,0.934,-0.44,-1.62,3.19,8.07,43.0,25856.0000000,57600.0000000
163,13.19,-5.38,221.56,0.00,0.00,180.00,0.221,0.081,0.918,0.81,-1.44,2.31,8.07,43.0,25856.0000000,57600.0000000
164,13.19,-5.62,221.38,0.00,0.00,180.00,0.217,0.091,0.914,3.81,3.25,1.94,8.07,43.0,25856.0000000,57600.0000000
165,13.00,-5.81,221.12,0.00,0.00,180.00,0.194,0.098,0.900,-0.31,0.00,2.44,8.07,43.0,25856.0000000,57600.0000000
166,13.00,-5.38,220.69,0.00,0.00,180.00,0.202,0.100,0.925,-5.69,-0.62,7.38,8.05,29.5,25856.0000000,57600.0000000
167,13.00,-4.62,219.75,0.00,0.00,180.00,0.203,0.085,0.941,-2.50,-0.31,8.69,8.05,29.5,25856.0000000,57600.0000000
168,13.00,-4.38,218.56,0.00,0.00,180.00,0.230,0.080,0.955,0.69,1.75,13.88,8.05,29.5,25856.0000000,57600.0000000
169,13.00,-4.19,217.38,0.00,0.00,180.00,0.222,0.036,0.956,4.44,-1.94,13.69,8.05,29.5,25856.0000000,57600.0000000
170,13.44,-4.56,216.31,0.00,0.00,180.00,0.270,0.033,0.908,10.44,-1.12,6.75,8.05,29.5,25856.0000000,57600.0000000
171,14.06,-5.06,215.81,0.00,0.00,180.00,0.278,0.050,0.902,7.81,2.50,-3.19,8.05,29.5,25856.0000000,57600.0000000
172,14.12,-5.25,216.75,0.00,0.00,180.00,0.265,0.045,0.900,-0.69,1.19,-16.69,8.05,29.5,25856.0000000,57600.0000000
173,14.06,-5.19,218.88,0.00,0.00,180.00,0.223,0.040,0.902,-7.88,-2.94,-31.94,8.05,29.5,25856.0000000,57600.0000000
174,14.50,-4.81,223.31,0.00,0.00,180.00,0.232,0.087,0.897,-17.19,-11.69,-49.06,8.05,29.5,25856.0000000,57600.0000000
175,15.12,-4.50,228.12,0.00,0.00,180.00,0.248,0.093,0.925,-14.94,-8.25,-42.38,8.05,29.5,25856.0000000,57600.0000000
176,15.50,-4.44,232.25,0.00,0.00,180.00,0.271,0.103,0.923,-7.69,-4.38,-33.94,8.05,29.5,25856.0000000,57600.0000000
177,14.94,-5.12,235.31,0.00,0.00,180.00,0.172,0.069,0.956,-0.12,4.38,-33.69,8.05,29.5,25856.0000000,57600.0000000
178,14.44,-6.25,238.56,0.00,0.00,180.00,0.187,0.130,0.936,2.31,-5.62,-34.56,8.05,29.5,25856.0000000,57600.0000000
179,14.44,-6.88,241.31,0.00,0.00,180.00,0.198,0.134,0.910,-7.94,-6.31,-25.94,8.05,29.5,25856.0000000,57600.0000000
180,15.06,-6.38,243.88,0.00,0.00,180.00,0.263,0.125,0.902,-13.44,-8.81,-19.19,8.05,29.5,25856.0000000,57600.0000000
181,14.94,-5.75,245.19,0.00,0.00,180.00,0.143,0.061,0.951,-6.69,0.44,-8.69,8.05,29.5,25856.0000000,57600.0000000
182,15.25,-5.94,245.69,0.00,0.00,180.00,0.204,0.124,0.916,5.25,-5.00,0.69,8.05,29.5,25856.0000000,57600.0000000
183,15.00,-6.62,244.75,0.00,0.00,180.00,0.153,0.141,0.919,11.81,5.12,16.56,8.05,29.5,25856.0000000,57600.0000000
184,14.06,-7.62,242.19,0.00,0.00,180.00,0.181,0.166,0.921,7.62,6.06,30.81,8.05,29.5,25856.0000000,57600.0000000
185,13.69,-7.31,238.88,0.00,0.00,180.00,0.199,0.129,0.920,2.62,7.12,38.06,8.05,29.5,25856.0000000,57600.0000000
186,13.44,-6.75,234.75,0.00,0.00,180.00,0.243,0.092,0.927,5.12,7.69,43.00,8.05,29.5,25856.0000000,57600.0000000
187,13.38,-6.06,230.62,0.00,0.00,180.00,0.255,0.057,0.924,4.75,7.12,38.56,8.10,29.5,25856.0000000,57600.0000000
188,13.56,-5.25,227.19,0.00,0.00,180.00,0.248,0.033,0.930,3.44,-0.19,28.56,8.10,29.5,25856.0000000,57600.0000000
189,14.25,-4.81,225.06,0.00,0.00,180.00,0.319,0.034,0.901,0.06,-4.12,17.81,8.10,29.5,25856.0000000,57600.0000000
190,15.38,-3.88,224.06,0.00,0.00,180.00,0.303,0.020,0.902,-1.94,-0.19,1.62,8.10,29.5,25856.0000000,57600.0000000
191,15.69,-3.62,224.56,0.00,0.00,180.00,0.294,0.035,0.900,2.12,2.44,-14.44,8.10,29.5,25856.0000000,57600.0000000
192,15.19,-4.62,225.88,0.00,0.00,180.00,0.237,0.082,0.929,7.94,4.69,-17.88,8.10,29.5,25856.0000000,57600.0000000
193,14.94,-5.62,227.81,0.00,0.00,180.00,0.214,0.132,0.917,1.44,-5.19,-19.81,8.10,29.5,25856.0000000,57600.0000000
194,15.31,-5.88,229.56,0.00,0.00,180.00,0.229,0.119,0.903,-8.56,-8.06,-16.88,8.10,29.5,25856.0000000,57600.0000000
195,15.56,-5.50,231.19,0.00,0.00,180.00,0.225,0.098,0.905,-6.56,-1.88,-10.94,8.10,29.5,25856.0000000,57600.0000000
196,15.44,-5.38,232.38,0.00,0.00,180.00,0.221,0.107,0.911,-7.19,-5.81,-13.88,8.10,29.5,25856.0000000,57600.0000000
197,15.81,-4.62,233.88,0.00,0.00,180.00,0.228,0.080,0.923,-16.31,-6.12,-16.38,8.10,29.5,25856.0000000,57600.0000000
198,16.25,-3.75,235.06,0.00,0.00,180.00,0.247,0.056,0.925,-11.31,-4.94,-8.06,8.10,29.5,25856.0000000,57600.0000000
199,15.81,-3.06,235.19,0.00,0.00,180.00,0.192,0.054,0.943,-1.56,-0.19,3.75,8.10,29.5,25856.0000000,57600.0000000
200,14.88,-3.38,233.19,0.00,0.00,180.00,0.127,0.113,0.979,21.12,11.44,43.81,8.10,29.5,25856.0000000,57600.0000000
201,13.62,-5.38,224.25,0.00,0.00,180.00,0.297,0.180,0.863,56.38,36.44,107.62,8.10,29.5,25856.0000000,57600.0000000
202,9.12,-10.69,211.06,0.00,0.00,180.00,0.126,0.243,0.907,86.50,69.12,107.88,8.10,29.5,25856.0000000,57600.0000000
203,5.19,-17.69,199.00,0.00,0.00,180.00,0.053,0.223,0.934,112.81,77.94,122.12,8.10,29.5,25856.0000000,57600.0000000
204,2.88,-30.25,184.38,0.00,0.00,180.00,-0.007,0.480,0.867,151.56,79.56,130.50,8.10,29.5,25856.0000000,57600.0000000
205,4.38,-42.62,170.12,0.00,0.00,180.00,0.026,0.763,0.715,117.75,61.12,110.50,8.10,29.5,25856.0000000,57600.0000000
206,6.00,-48.25,159.38,0.00,0.00,180.00,-0.108,0.745,0.654,34.69,53.88,68.94,8.10,29.5,25856.0000000,57600.0000000
207,7.75,-50.00,150.75,0.00,0.00,180.00,0.082,0.684,0.654,27.19,46.00,57.06,8.00,39.5,25856.0000000,57600.0000000
208,8.94,-52.50,142.12,0.00,0.00,180.00,0.122,0.729,0.595,50.62,58.31,65.62,8.00,39.5,25856.0000000,57600.0000000
210,11.88,-55.50,124.50,0.00,0.00,180.00,0.120,0.764,0.627,-37.56,43.31,18.19,8.00,39.5,25856.0000000,57600.0000000
211,9.50,-49.06,128.75,0.00,0.00,180.00,0.185,0.579,0.737,-120.75,-43.00,-98.31,8.00,39.5,25856.0000000,57600.0000000
213,4.06,-18.19,171.06,0.00,0.00,180.00,0.021,0.144,0.932,-181.25,-117.56,-169.00,8.00,39.5,25856.0000000,57600.0000000
214,14.12,-5.00,192.44,0.00,0.00,180.00,0.164,0.047,0.970,-121.38,-154.50,-161.94,8.00,39.5,25856.0000000,57600.0000000
215,25.94,-1.56,205.50,0.00,0.00,180.00,0.543,0.235,0.841,-57.50,-84.62,-66.94,8.00,39.5,25856.0000000,57600.0000000
216,29.00,0.25,205.75,0.00,0.00,180.00,0.570,0.096,0.784,-2.38,7.06,31.75,8.00,39.5,25856.0000000,57600.0000000
217,26.31,1.88,202.69,0.00,0.00,180.00,0.370,-0.087,0.920,0.06,29.00,23.00,8.00,39.5,25856.0000000,57600.0000000
218,24.44,2.44,201.88,0.00,0.00,180.00,0.316,-0.145,1.008,3.62,9.12,8.62,8.00,39.5,25856.0000000,57600.0000000
219,25.56,2.06,201.56,0.00,0.00,180.00,0.382,0.062,0.838,5.88,-22.00,11.50,8.00,39.5,25856.0000000,57600.0000000
220,27.81,3.88,200.75,0.00,0.00,180.00,0.447,-0.084,0.783,-29.25,-26.69,3.94,8.00,39.5,25856.0000000,57600.0000000
221,29.69,6.62,202.12,0.00,0.00,180.00,0.510,-0.195,0.804,-21.94,-2.94,-10.31,8.00,39.5,25856.0000000,57600.0000000
222,29.06,8.00,203.06,0.00,0.00,180.00,0.472,-0.160,0.800,6.56,19.88,-9.06,8.00,39.5,25856.0000000,57600.0000000
223,24.00,4.44,197.81,0.00,0.00,180.00,0.446,-0.124,0.816,97.81,78.00,89.75,8.00,39.5,25856.0000000,57600.0000000
224,15.81,-3.56,186.75,0.00,0.00,180.00,0.111,0.081,0.982,117.38,62.12,95.94,8.00,39.5,25856.0000000,57600.0000000
225,13.44,-9.31,175.44,0.00,0.00,180.00,0.263,0.122,0.889,73.81,36.12,123.06,8.00,39.5,25856.0000000,57600.0000000
226,11.06,-15.31,161.00,0.00,0.00,180.00,0.307,0.137,0.832,123.88,71.81,164.88,8.00,39.5,25856.0000000,57600.0000000
227,8.12,-23.94,147.81,0.00,0.00,180.00,-0.028,0.359,0.911,97.56,54.56,83.69,7.96,28.0,25856.0000000,57600.0000000
228,9.38,-26.12,146.31,0.00,0.00,180.00,0.194,0.376,0.866,-26.19,-35.75,-21.25,7.96,28.0,25856.0000000,57600.0000000
229,10.31,-22.50,156.06,0.00,0.00,180.00,0.211,0.312,0.842,-83.81,-56.38,-144.00,7.96,28.0,25856.0000000,57600.0000000
230,10.31,-15.69,174.69,0.00,0.00,180.00,0.060,0.236,0.876,-129.38,-65.75,-211.75,7.96,28.0,25856.0000000,57600.0000000
231,14.75,-6.50,197.50,0.00,0.00,180.00,0.208,0.042,0.887,-158.62,-102.19,-241.81,7.96,28.0,25856.0000000,57600.0000000
232,21.56,-1.25,220.12,0.00,0.00,180.00,0.412,-0.084,0.856,-107.25,-60.44,-203.56,7.96,28.0,25856.0000000,57600.0000000
233,23.62,-3.00,235.38,0.00,0.00,180.00,0.421,0.118,0.887,-8.44,-6.88,-100.12,7.96,28.0,25856.0000000,57600.0000000
234,23.62,-5.25,240.31,0.00,0.00,180.00,0.272,0.245,0.970,4.69,-14.06,-18.56,7.96,28.0,25856.0000000,57600.0000000
235,26.62,-4.75,241.56,0.00,0.00,180.00,0.396,0.068,0.892,-4.06,-43.62,12.62,7.96,28.0,25856.0000000,57600.0000000
236,31.81,-4.19,238.19,0.00,0.00,180.00,0.537,0.076,0.728,12.00,-56.38,37.56,7.96,28.0,25856.0000000,57600.0000000
237,36.44,-2.50,232.31,0.00,0.00,180.00,0.678,0.007,0.678,26.75,-28.94,71.62,7.96,28.0,25856.0000000,57600.0000000
238,36.88,-0.88,225.12,0.00,0.00,180.00,0.702,-0.040,0.717,30.44,16.81,49.62,7.96,28.0,25856.0000000,57600.0000000
239,35.12,-1.62,223.12,0.00,0.00,180.00,0.579,-0.017,0.774,15.88,16.06,-3.19,7.96,28.0,25856.0000000,57600.0000000
240,33.69,-3.25,221.62,0.00,0.00,180.00,0.486,0.051,0.741,14.38,11.19,4.38,7.96,28.0,25856.0000000,57600.0000000
241,32.94,-3.38,219.94,0.00,0.00,180.00,0.486,0.023,0.755,12.88,10.69,22.62,7.96,28.0,25856.0000000,57600.0000000
242,32.00,-3.12,217.81,0.00,0.00,180.00,0.484,0.042,0.848,15.25,9.12,23.81,7.96,28.0,25856.0000000,57600.0000000
243,31.38,-3.19,214.69,0.00,0.00,180.00,0.478,0.038,0.848,21.38,7.38,36.25,7.96,28.0,25856.0000000,57600.0000000
244,31.56,-3.44,210.56,0.00,0.00,180.00,0.511,0.121,0.770,23.81,-2.81,34.06,7.96,28.0,25856.0000000,57600.0000000
245,31.62,-3.19,204.94,0.00,0.00,180.00,0.534,0.075,0.782,21.94,8.25,55.88,7.96,28.0,25856.0000000,57600.0000000
246,30.56,-2.50,197.88,0.00,0.00,180.00,0.504,0.073,0.787,40.50,13.06,71.06,7.96,28.0,25856.0000000,57600.0000000
247,29.56,-1.69,190.81,0.00,0.00,180.00,0.450,0.092,0.754,24.06,12.12,67.38,7.96,28.0,25856.0000000,57600.0000000
248,28.50,-0.25,185.56,0.00,0.00,180.00,0.438,0.046,0.794,8.12,12.94,40.00,8.10,30.0,25856.0000000,57600.0000000
249,26.94,0.12,182.69,0.00,0.00,180.00,0.399,0.086,0.872,6.69,21.75,25.38,8.10,30.0,25856.0000000,57600.0000000
250,25.75,0.81,181.31,0.00,0.00,180.00,0.402,-0.010,0.903,-7.19,0.06,-3.56,8.10,30.0,25856.0000000,57600.0000000
251,26.06,0.81,181.44,0.00,0.00,180.00,0.478,-0.057,0.913,-0.81,2.44,1.69,8.10,30.0,25856.0000000,57600.0000000
252,25.12,-0.44,181.25,0.00,0.00,180.00,0.377,-0.143,0.843,35.62,16.12,1.38,8.10,30.0,25856.0000000,57600.0000000
253,23.44,-4.00,180.38,0.00,0.00,180.00,0.366,0.083,0.798,29.00,15.62,4.69,8.10,30.0,25856.0000000,57600.0000000
254,23.19,-4.44,179.94,0.00,0.00,180.00,0.370,0.001,0.825,-14.31,-8.31,-5.56,8.10,30.0,25856.0000000,57600.0000000
255,23.94,-3.75,180.31,0.00,0.00,180.00,0.421,-0.062,0.854,1.12,-6.50,-7.19,8.10,30.0,25856.0000000,57600.0000000
0,23.69,-5.12,180.50,0.00,0.00,180.00,0.475,0.002,0.811,18.81,13.31,-1.88,8.10,30.0,25856.0000000,57600.0000000
1,22.31,-6.38,180.81,0.00,0.00,180.00,0.377,0.009,0.862,7.25,17.12,-14.38,8.10,30.0,25856.0000000,57600.0000000
2,21.75,-6.56,182.94,0.00,0.00,180.00,0.377,0.072,0.866,-11.69,-4.12,-26.31,8.10,30.0,25856.0000000,57600.0000000
3,21.88,-5.88,184.94,0.00,0.00,180.00,0.385,0.050,0.871,-12.06,0.75,-17.19,8.10,30.0,25856.0000000,57600.0000000
4,21.94,-5.31,186.94,0.00,0.00,180.00,0.466,0.081,0.895,-12.69,1.25,-16.81,8.10,30.0,25856.0000000,57600.0000000
5,21.12,-5.31,188.75,0.00,0.00,180.00,0.420,0.075,0.902,-1.50,1.94,-24.81,8.10,30.0,25856.0000000,57600.0000000
6,20.12,-6.75,189.19,0.00,0.00,180.00,0.404,0.115,0.920,22.81,14.12,5.06,8.10,30.0,25856.0000000,57600.0000000
7,18.56,-9.44,185.81,0.00,0.00,180.00,0.316,0.130,0.905,56.44,33.19,54.31,8.10,30.0,25856.0000000,57600.0000000
8,17.31,-13.56,179.12,0.00,0.00,180.00,0.321,0.287,0.913,67.19,23.69,72.75,8.10,30.0,25856.0000000,57600.0000000
9,15.56,-15.38,172.50,0.00,0.00,180.00,0.148,0.036,0.863,26.06,39.00,26.38,8.10,30.0,25856.0000000,57600.0000000
10,13.31,-16.88,178.62,0.00,0.00,180.00,0.112,0.147,0.895,-23.25,-12.81,-124.12,8.10,30.0,25856.0000000,57600.0000000
11,12.31,-17.50,190.62,0.00,0.00,180.00,0.124,0.266,0.908,-36.06,-37.38,-141.88,8.10,30.0,25856.0000000,57600.0000000
12,12.94,-16.75,201.50,0.00,0.00,180.00,0.136,0.277,0.935,-37.81,-41.31,-98.06,8.09,39.5,25856.0000000,57600.0000000
13,15.00,-14.31,213.06,0.00,0.00,180.00,0.154,0.205,0.891,-61.31,-62.88,-110.12,8.09,39.5,25856.0000000,57600.0000000
14,18.06,-12.31,226.75,0.00,0.00,180.00,0.260,0.168,0.885,-45.12,-55.44,-119.69,8.09,39.5,25856.0000000,57600.0000000
15,19.50,-12.31,241.31,0.00,0.00,180.00,0.285,0.210,0.858,-39.44,-34.12,-124.69,8.09,39.5,25856.0000000,57600.0000000
16,19.69,-12.75,253.50,0.00,0.00,180.00,0.283,0.268,0.936,-47.06,-26.06,-124.69,8.09,39.5,25856.0000000,57600.0000000
19,24.69,-4.50,275.75,0.00,0.00,180.00,0.441,0.020,0.805,-19.38,26.69,32.75,8.09,39.5,25856.0000000,57600.0000000
20,20.50,-3.06,270.12,0.00,0.00,180.00,0.458,-0.020,0.872,23.19,59.12,61.62,8.09,39.5,25856.0000000,57600.0000000
21,14.25,-4.56,265.75,0.00,0.00,180.00,0.272,0.036,0.961,45.75,72.19,38.12,8.09,39.5,25856.0000000,57600.0000000
22,8.38,-9.19,262.31,0.00,0.00,180.00,0.128,0.170,0.958,56.00,54.94,22.19,8.09,39.5,25856.0000000,57600.0000000
23,5.19,-14.38,257.94,0.00,0.00,180.00,0.088,0.288,0.964,46.62,28.19,45.50,8.09,39.5,25856.0000000,57600.0000000
24,5.00,-16.88,253.31,0.00,0.00,180.00,0.100,0.255,0.923,19.69,7.56,45.69,8.09,39.5,25856.0000000,57600.0000000
25,6.19,-18.00,250.69,0.00,0.00,180.00,0.197,0.233,0.926,19.12,-10.44,18.00,8.09,39.5,25856.0000000,57600.0000000
26,6.56,-20.12,250.06,0.00,0.00,180.00,0.171,0.287,0.941,12.62,-2.06,-17.38,8.09,39.5,25856.0000000,57600.0000000
27,6.31,-21.19,253.19,0.00,0.00,180.00,0.138,0.301,0.910,-4.44,-23.69,-55.88,8.09,39.5,25856.0000000,57600.0000000
29,7.62,-17.81,270.38,0.00,0.00,180.00,0.181,0.218,0.899,-39.44,-38.50,-77.88,8.09,39.5,25856.0000000,57600.0000000
30,9.44,-13.25,282.12,0.00,0.00,180.00,0.073,0.221,0.924,-79.25,-48.50,-114.88,8.09,39.5,25856.0000000,57600.0000000
31,13.50,-8.06,298.69,0.00,0.00,180.00,0.164,0.194,0.960,-99.69,-71.00,-197.62,8.09,39.5,25856.0000000,57600.0000000
32,17.31,-6.38,313.62,0.00,0.00,180.00,0.212,0.139,0.934,-55.06,-54.75,-156.50,8.01,29.0,25856.0000000,57600.0000000
34,26.06,-8.75,333.38,0.00,0.00,180.00,0.443,0.207,0.856,-2.00,-38.50,-15.00,8.01,29.0,25856.0000000,57600.0000000
35,27.31,-9.56,330.56,0.00,0.00,180.00,0.464,0.285,0.803,21.94,22.56,32.06,8.01,29.0,25856.0000000,57600.0000000
36,22.56,-9.69,321.06,0.00,0.00,180.00,0.317,0.080,0.895,50.75,80.50,75.81,8.01,29.0,25856.0000000,57600.0000000
39,14.44,-15.88,301.25,0.00,0.00,180.00,0.337,0.239,0.808,36.00,34.44,72.38,8.01,29.0,25856.0000000,57600.0000000
40,12.25,-17.31,295.12,0.00,0.00,180.00,0.222,0.311,0.793,31.12,50.69,56.38,8.01,29.0,25856.0000000,57600.0000000
42,12.19,-14.81,298.44,0.00,0.00,180.00,0.333,0.289,0.904,-57.12,-41.88,-80.88,8.01,29.0,25856.0000000,57600.0000000
46,23.81,-2.50,358.25,0.00,0.00,180.00,0.349,0.151,0.934,-4.75,-28.62,-52.31,8.01,29.0,25856.0000000,57600.0000000
50,14.81,-16.31,305.12,0.00,0.00,180.00,0.313,0.217,0.744,86.62,85.38,160.50,8.01,29.0,25856.0000000,57600.0000000
52,4.88,-22.69,285.25,0.00,0.00,180.00,-0.196,0.385,0.972,-6.06,35.75,0.31,8.01,29.0,25856.0000000,57600.0000000
57,16.00,-0.06,320.75,0.00,0.00,180.00,0.238,-0.049,0.998,-12.44,-36.62,17.56,8.01,29.0,25856.0000000,57600.0000000
58,22.50,2.00,324.62,0.00,0.00,180.00,0.442,0.004,0.900,-51.88,-77.38,-60.88,8.01,29.0,25856.0000000,57600.0000000
59,30.25,2.25,331.06,0.00,0.00,180.00,0.603,-0.073,0.730,-16.75,-71.81,-76.06,8.01,29.0,25856.0000000,57600.0000000
61,37.12,-9.94,343.12,0.00,0.00,180.00,0.594,0.294,0.679,43.38,-13.81,-17.81,8.01,29.0,25856.0000000,57600.0000000
64,28.75,-12.56,306.62,0.00,0.00,180.00,0.416,0.082,0.816,119.06,88.44,155.69,8.01,29.0,25856.0000000,57600.0000000
65,24.25,-15.38,287.88,0.00,0.00,180.00,0.398,0.291,0.723,110.06,93.69,182.06,8.01,29.0,25856.0000000,57600.0000000
66,18.50,-17.88,267.88,0.00,0.00,180.00,0.167,0.293,0.851,120.44,121.56,182.25,8.01,29.0,25856.0000000,57600.0000000
67,14.44,-22.69,248.75,0.00,0.00,180.00,0.161,0.485,0.882,61.31,83.88,93.81,8.01,29.0,25856.0000000,57600.0000000
68,12.75,-23.62,238.75,0.00,0.00,180.00,0.206,0.393,0.883,6.00,29.31,50.94,8.01,29.0,25856.0000000,57600.0000000
69,12.12,-22.56,234.56,0.00,0.00,180.00,0.203,0.320,0.877,-6.38,16.38,24.75,8.01,29.0,25856.0000000,57600.0000000
70,11.88,-21.94,233.62,0.00,0.00,180.00,0.256,0.314,0.860,3.06,7.00,9.12,8.01,29.0,25856.0000000,57600.0000000
71,11.00,-22.25,234.31,0.00,0.00,180.00,0.124,0.370,0.881,8.25,5.38,-1.69,8.01,29.0,25856.0000000,57600.0000000
72,11.00,-23.12,234.06,0.00,0.00,180.00,0.191,0.424,0.875,1.19,0.25,-2.81,8.01,29.0,25856.0000000,57600.0000000
73,10.81,-22.56,234.38,0.00,0.00,180.00,0.081,0.333,0.879,-6.25,0.38,-4.88,7.99,40.5,25856.0000000,57600.0000000
74,11.00,-22.56,235.12,0.00,0.00,180.00,0.151,0.346,0.848,1.69,-7.50,-10.50,7.99,40.5,25856.0000000,57600.0000000
75,10.75,-22.19,237.50,0.00,0.00,180.00,0.224,0.314,0.854,-24.38,-11.12,-46.94,7.99,40.5,25856.0000000,57600.0000000
76,9.81,-19.62,244.56,0.00,0.00,180.00,0.205,0.226,0.877,-34.31,-21.12,-57.62,7.99,40.5,25856.0000000,57600.0000000
77,8.94,-16.56,255.00,0.00,0.00,180.00,0.130,0.199,0.937,-35.88,-18.81,-71.25,7.99,40.5,25856.0000000,57600.0000000
78,8.69,-14.31,264.56,0.00,0.00,180.00,0.079,0.203,0.969,-32.88,-24.12,-82.62,7.99,40.5,25856.0000000,57600.0000000
79,10.00,-12.00,272.69,0.00,0.00,180.00,0.072,0.181,1.017,-61.81,-54.00,-93.50,7.99,40.5,25856.0000000,57600.0000000
80,15.75,-7.44,285.81,0.00,0.00,180.00,0.215,0.100,0.880,-47.81,-91.62,-89.94,7.99,40.5,25856.0000000,57600.0000000
81,22.69,-6.62,298.19,0.00,0.00,180.00,0.374,0.135,0.835,-46.69,-71.25,-104.44,7.99,40.5,25856.0000000,57600.0000000
82,27.00,-8.06,306.75,0.00,0.00,180.00,0.495,0.186,0.767,-24.69,-37.31,-78.69,7.99,40.5,25856.0000000,57600.0000000
83,28.69,-9.94,312.00,0.00,0.00,180.00,0.468,0.135,0.681,-8.50,-18.06,-54.06,7.99,40.5,25856.0000000,57600.0000000
84,29.50,-12.50,317.19,0.00,0.00,180.00,0.532,0.313,0.775,-1.25,-21.31,-36.31,7.99,40.5,25856.0000000,57600.0000000
85,30.31,-12.56,319.69,0.00,0.00,180.00,0.528,0.272,0.813,-14.75,-12.06,-5.06,7.99,40.5,25856.0000000,57600.0000000
86,30.75,-11.94,319.44,0.00,0.00,180.00,0.549,0.193,0.733,3.56,10.00,8.00,7.99,40.5,25856.0000000,57600.0000000
87,29.12,-12.38,317.75,0.00,0.00,180.00,0.545,0.237,0.743,20.44,35.19,20.88,7.99,40.5,25856.0000000,57600.0000000
88,25.69,-12.50,315.50,0.00,0.00,180.00,0.415,0.196,0.811,8.69,37.06,9.00,7.99,40.5,25856.0000000,57600.0000000
89,23.88,-12.69,313.94,0.00,0.00,180.00,0.411,0.208,0.843,2.75,12.19,7.25,7.99,40.5,25856.0000000,57600.0000000
90,23.81,-12.19,314.19,0.00,0.00,180.00,0.421,0.198,0.819,-5.12,-6.88,-2.69,7.99,40.5,25856.0000000,57600.0000000
91,24.12,-12.06,314.19,0.00,0.00,180.00,0.413,0.204,0.828,-1.25,4.19,5.00,7.99,40.5,25856.0000000,57600.0000000
92,23.81,-11.81,314.19,0.00,0.00,180.00,0.387,0.196,0.828,-2.75,4.19,-1.25,7.99,40.5,25856.0000000,57600.0000000
94,24.50,-11.00,312.12,0.00,0.00,180.00,0.409,0.207,0.836,0.44,-12.88,19.19,7.99,40.5,25856.0000000,57600.0000000
95,25.81,-9.94,310.50,0.00,0.00,180.00,0.431,0.149,0.807,-1.38,-7.31,18.06,7.99,40.5,25856.0000000,57600.0000000
97,27.19,-8.25,307.38,0.00,0.00,180.00,0.452,0.116,0.813,-4.06,-5.50,11.62,7.99,40.5,25856.0000000,57600.0000000
99,28.38,-7.12,304.69,0.00,0.00,180.00,0.449,0.082,0.819,7.44,-1.19,11.75,7.99,40.5,25856.0000000,57600.0000000
100,28.56,-7.31,303.19,0.00,0.00,180.00,0.456,0.089,0.812,11.19,2.31,16.00,7.99,40.5,25856.0000000,57600.0000000
101,28.44,-7.69,300.75,0.00,0.00,180.00,0.458,0.116,0.814,22.62,8.25,32.94,7.99,40.5,25856.0000000,57600.0000000
102,27.62,-7.88,296.00,0.00,0.00,180.00,0.389,0.115,0.864,29.44,15.25,49.25,7.99,40.5,25856.0000000,57600.0000000
103,27.19,-7.94,289.75,0.00,0.00,180.00,0.403,0.111,0.841,26.88,10.31,54.62,7.99,40.5,25856.0000000,57600.0000000
104,26.94,-7.38,283.62,0.00,0.00,180.00,0.397,0.092,0.839,17.19,3.94,51.81,7.99,40.5,25856.0000000,57600.0000000
105,27.19,-5.88,278.00,0.00,0.00,180.00,0.449,0.051,0.816,6.75,3.56,51.50,7.99,40.5,25856.0000000,57600.0000000
109,26.94,-3.38,274.31,0.00,0.00,180.00,0.438,0.096,0.860,25.56,2.25,37.62,7.99,40.5,25856.0000000,57600.0000000
111,27.88,-5.38,269.44,0.00,0.00,180.00,0.443,0.080,0.857,21.75,-3.44,13.88,7.99,40.5,25856.0000000,57600.0000000
112,27.69,-6.62,267.12,0.00,0.00,180.00,0.372,0.046,0.832,20.25,1.06,8.31,7.99,40.5,25856.0000000,57600.0000000
113,27.94,-8.56,265.31,0.00,0.00,180.00,0.442,0.175,0.809,26.19,1.12,17.19,7.99,40.5,25856.0000000,57600.0000000
114,27.88,-9.06,262.94,0.00,0.00,180.00,0.431,0.070,0.821,12.81,9.38,21.75,8.07,30.0,25856.0000000,57600.0000000
115,26.50,-9.88,259.12,0.00,0.00,180.00,0.355,0.057,0.855,31.56,19.94,32.50,8.07,30.0,25856.0000000,57600.0000000
116,26.50,-10.69,257.00,0.00,0.00,180.00,0.434,0.171,0.834,9.12,-4.25,15.50,8.07,30.0,25856.0000000,57600.0000000
117,27.00,-10.19,255.50,0.00,0.00,180.00,0.484,0.144,0.792,3.62,7.88,23.62,8.07,30.0,25856.0000000,57600.0000000
118,26.12,-9.25,251.94,0.00,0.00,180.00,0.428,0.066,0.796,7.88,12.19,29.50,8.07,30.0,25856.0000000,57600.0000000
119,26.44,-8.38,249.06,0.00,0.00,180.00,0.516,0.158,0.809,5.62,-2.56,29.50,8.07,30.0,25856.0000000,57600.0000000
120,27.25,-6.69,245.75,0.00,0.00,180.00,0.495,0.027,0.796,-5.69,-4.50,29.69,8.07,30.0,25856.0000000,57600.0000000
121,28.12,-5.81,243.31,0.00,0.00,180.00,0.497,0.061,0.812,13.38,-6.50,22.00,8.07,30.0,25856.0000000,57600.0000000
122,28.69,-5.69,241.00,0.00,0.00,180.00,0.487,0.073,0.824,6.56,-0.62,23.62,8.07,30.0,25856.0000000,57600.0000000
123,29.25,-4.94,238.88,0.00,0.00,180.00,0.512,0.047,0.838,5.50,-1.12,15.75,8.07,30.0,25856.0000000,57600.0000000
124,28.94,-5.12,237.25,0.00,0.00,180.00,0.509,0.079,0.886,16.19,15.12,17.62,8.07,30.0,25856.0000000,57600.0000000
125,27.81,-6.06,235.50,0.00,0.00,180.00,0.403,0.087,0.838,15.75,6.88,6.50,8.07,30.0,25856.0000000,57600.0000000
126,27.94,-7.25,235.50,0.00,0.00,180.00,0.419,0.128,0.782,7.75,-5.00,-7.25,8.07,30.0,25856.0000000,57600.0000000
127,27.81,-7.88,235.50,0.00,0.00,180.00,0.433,0.130,0.803,-0.19,7.88,4.12,8.07,30.0,25856.0000000,57600.0000000
128,26.81,-7.25,235.12,0.00,0.00,180.00,0.356,0.049,0.842,-3.44,8.50,1.81,8.07,30.0,25856.0000000,57600.0000000
129,27.38,-6.88,235.56,0.00,0.00,180.00,0.431,0.193,0.818,-13.44,-17.44,-5.81,8.07,30.0,25856.0000000,57600.0000000
130,29.00,-4.69,234.19,0.00,0.00,180.00,0.429,0.080,0.865,1.06,-3.62,53.31,8.07,30.0,25856.0000000,57600.0000000
131,29.00,-2.44,226.69,0.00,0.00,180.00,0.321,0.005,0.904,27.81,3.69,86.69,8.07,30.0,25856.0000000,57600.0000000
132,28.31,-0.25,215.75,0.00,0.00,180.00,0.361,0.076,0.853,48.81,23.19,144.06,8.07,30.0,25856.0000000,57600.0000000
133,23.88,2.12,198.06,0.00,0.00,180.00,0.301,0.073,0.900,59.38,50.94,178.00,8.07,30.0,25856.0000000,57600.0000000
134,16.62,1.62,177.94,0.00,0.00,180.00,0.154,-0.056,0.911,85.94,64.00,177.75,8.10,41.0,25856.0000000,57600.0000000
135,11.12,-3.06,162.12,0.00,0.00,180.00,0.192,0.076,0.933,69.12,50.38,110.56,8.10,41.0,25856.0000000,57600.0000000
136,7.62,-6.69,153.06,0.00,0.00,180.00,-0.045,0.100,1.006,44.62,24.38,63.69,8.10,41.0,25856.0000000,57600.0000000
137,7.88,-10.44,147.62,0.00,0.00,180.00,-0.049,0.048,1.010,60.88,-11.25,41.75,8.10,41.0,25856.0000000,57600.0000000
138,10.50,-18.56,142.94,0.00,0.00,180.00,0.169,0.251,0.931,109.50,-9.50,51.12,8.10,41.0,25856.0000000,57600.0000000
139,11.19,-25.31,139.19,0.00,0.00,180.00,0.101,0.559,0.829,47.06,17.44,24.50,8.10,41.0,25856.0000000,57600.0000000
140,11.56,-25.88,137.31,0.00,0.00,180.00,0.099,0.514,0.851,-15.38,-11.06,5.81,8.10,41.0,25856.0000000,57600.0000000
141,13.44,-22.00,139.62,0.00,0.00,180.00,0.162,0.413,0.875,-80.50,-54.56,-53.94,8.10,41.0,25856.0000000,57600.0000000
142,17.31,-11.75,151.75,0.00,0.00,180.00,0.282,0.144,0.801,-165.62,-76.75,-112.75,8.10,41.0,25856.0000000,57600.0000000
143,23.75,0.31,165.75,0.00,0.00,180.00,0.345,-0.101,0.771,-156.50,-73.38,-81.00,8.10,41.0,25856.0000000,57600.0000000
144,30.31,9.38,176.19,0.00,0.00,180.00,0.402,-0.184,0.750,-102.25,-50.25,-48.25,8.10,41.0,25856.0000000,57600.0000000
145,33.38,14.62,179.25,0.00,0.00,180.00,0.480,-0.215,0.773,-39.06,-9.88,1.19,8.10,41.0,25856.0000000,57600.0000000
146,31.06,16.56,176.00,0.00,0.00,180.00,0.406,-0.344,0.848,19.56,25.81,44.38,8.10,41.0,25856.0000000,57600.0000000
147,27.25,14.31,171.69,0.00,0.00,180.00,0.364,-0.247,0.893,73.06,41.62,52.56,8.10,41.0,25856.0000000,57600.0000000
148,21.94,7.38,164.25,0.00,0.00,180.00,0.295,0.063,0.889,97.75,42.44,65.12,8.10,41.0,25856.0000000,57600.0000000
149,18.81,2.94,158.44,0.00,0.00,180.00,0.245,0.121,0.950,32.25,12.12,37.56,8.10,41.0,25856.0000000,57600.0000000
150,18.81,2.69,154.88,0.00,0.00,180.00,0.271,0.040,0.980,2.94,-8.12,25.44,8.10,41.0,25856.0000000,57600.0000000
151,19.19,2.50,152.38,0.00,0.00,180.00,0.246,-0.019,0.941,20.50,-5.00,21.88,8.10,41.0,25856.0000000,57600.0000000
152,18.94,-0.44,150.62,0.00,0.00,180.00,0.330,0.118,0.916,39.88,1.44,3.50,8.10,41.0,25856.0000000,57600.0000000
153,17.94,-2.94,150.06,0.00,0.00,180.00,0.200,0.097,0.889,9.25,9.94,-5.00,8.10,41.0,25856.0000000,57600.0000000
154,18.12,-2.69,151.69,0.00,0.00,180.00,0.221,-0.002,0.818,-12.38,-12.38,-21.88,8.09,30.5,25856.0000000,57600.0000000
155,18.31,-3.00,152.12,0.00,0.00,180.00,0.223,-0.011,0.860,18.50,5.69,16.75,8.09,30.5,25856.0000000,57600.0000000
156,18.88,-2.94,152.56,0.00,0.00,180.00,0.437,-0.012,0.921,-26.25,-5.06,-29.00,8.09,30.5,25856.0000000,57600.0000000
157,18.69,-2.00,158.62,0.00,0.00,180.00,0.286,-0.141,0.956,-17.38,-6.50,-64.81,8.09,30.5,25856.0000000,57600.0000000
158,18.88,-4.38,166.12,0.00,0.00,180.00,0.328,0.145,0.914,16.81,6.56,-62.00,8.09,30.5,25856.0000000,57600.0000000
159,18.19,-6.69,169.56,0.00,0.00,180.00,0.296,0.170,0.899,-14.56,-8.12,-40.94,8.09,30.5,25856.0000000,57600.0000000
160,20.25,-5.19,174.50,0.00,0.00,180.00,0.281,0.129,0.889,-34.56,-34.44,-42.44,8.09,30.5,25856.0000000,57600.0000000
161,23.19,-3.00,178.62,0.00,0.00,180.00,0.367,0.069,0.878,-60.38,-39.50,-36.88,8.09,30.5,25856.0000000,57600.0000000
162,26.50,1.19,184.12,0.00,0.00,180.00,0.333,0.001,0.856,-56.81,-35.81,-39.69,8.09,30.5,25856.0000000,57600.0000000
163,28.38,3.94,184.94,0.00,0.00,180.00,0.406,0.010,0.871,2.12,-5.12,40.81,8.09,30.5,25856.0000000,57600.0000000
164,27.00,4.19,183.06,0.00,0.00,180.00,0.435,-0.018,0.955,21.06,28.56,21.25,8.09,30.5,25856.0000000,57600.0000000
165,25.44,1.50,181.12,0.00,0.00,180.00,0.503,0.052,0.915,28.19,3.94,-2.50,8.09,30.5,25856.0000000,57600.0000000
166,25.88,0.19,181.69,0.00,0.00,180.00,0.373,-0.075,0.807,-5.38,-19.31,-24.12,8.09,30.5,25856.0000000,57600.0000000
167,27.50,-0.06,184.50,0.00,0.00,180.00,0.461,-0.072,0.754,-9.88,-2.12,-21.81,8.09,30.5,25856.0000000,57600.0000000
168,26.62,-0.44,185.69,0.00,0.00,180.00,0.347,-0.134,0.781,0.56,7.38,-9.31,8.09,30.5,25856.0000000,57600.0000000
169,26.38,-1.50,188.19,0.00,0.00,180.00,0.399,-0.034,0.812,2.00,3.62,-29.31,8.09,30.5,25856.0000000,57600.0000000
170,25.19,-3.00,190.19,0.00,0.00,180.00,0.515,0.092,0.869,-6.38,23.31,-15.81,8.09,30.5,25856.0000000,57600.0000000
171,22.25,-1.94,194.00,0.00,0.00,180.00,0.220,-0.135,0.896,-20.81,14.38,-57.88,8.09,30.5,25856.0000000,57600.0000000
172,21.81,-4.44,200.31,0.00,0.00,180.00,0.463,0.167,0.893,5.56,1.69,-61.19,8.09,30.5,25856.0000000,57600.0000000
173,21.38,-4.88,208.38,0.00,0.00,180.00,0.288,0.000,0.977,-48.12,-15.75,-96.88,8.09,30.5,25856.0000000,57600.0000000
174,23.00,-4.88,219.75,0.00,0.00,180.00,0.403,0.024,0.832,-40.62,-22.00,-116.00,8.09,30.5,25856.0000000,57600.0000000
175,21.88,-6.12,229.56,0.00,0.00,180.00,0.306,0.069,0.903,-16.56,25.06,-58.88,8.09,28.5,25856.0000000,57600.0000000
176,19.88,-5.06,236.06,0.00,0.00,180.00,0.085,-0.073,0.920,-43.94,-10.12,-76.19,8.09,28.5,25856.0000000,57600.0000000
177,22.62,-4.12,243.44,0.00,0.00,180.00,0.367,0.167,0.846,-42.19,-47.00,-58.00,8.09,28.5,25856.0000000,57600.0000000
178,25.62,0.38,249.12,0.00,0.00,180.00,0.300,-0.082,0.793,-75.75,-20.62,-34.00,8.09,28.5,25856.0000000,57600.0000000
179,26.12,3.31,252.31,0.00,0.00,180.00,0.439,-0.080,0.876,-10.62,15.44,-8.06,8.09,28.5,25856.0000000,57600.0000000
