Roll,Pitch,Yaw,AccX,AccY,AccZ,GyroX,GyroY,GyroZ,Battery,Temperature,Latitude,Longitude,Altitude,Roll_Setpoint,Pitch_Setpoint,Yaw_Setpoint,Timestamp,Validity,CRC
-0.4375,-7.125,41.4375,0.003,-0.122,0.981,-0.1875,-0.0625,0.0,96.07843137254902,10,0.0,0.0,0.0,0.0,0.0,0.0,79,1,1
-0.4375,-7.125,41.4375,0.001,-0.12,0.982,-0.125,0.1875,-0.0625,96.07843137254902,10,0.0,0.0,0.0,0.0,0.0,0.0,80,1,1
-0.4375,-7.125,41.4375,0.003,-0.12,0.98,0.0,0.0,0.0625,96.07843137254902,10,0.0,0.0,0.0,0.0,0.0,0.0,81,1,1
-0.4375,-7.125,41.4375,0.002,-0.121,0.981,0.1875,0.0625,-0.0625,96.07843137254902,10,0.0,0.0,0.0,0.0,0.0,0.0,82,1,1
-0.4375,-7.125,41.4375,0.004,-0.11900000000000001,0.982,0.0625,0.125,-0.0625,96.07843137254902,10,0.0,0.0,0.0,0.0,0.0,0.0,83,1,1
-0.4375,-7.125,41.4375,0.003,-0.12,0.983,-0.125,0.0,0.0625,96.07843137254902,10,0.0,0.0,0.0,0.0,0.0,0.0,84,1,1
-0.4375,-7.125,41.4375,0.003,-0.12,0.986,0.0625,0.0625,-0.0625,96.07843137254902,10,0.0,0.0,0.0,0.0,0.0,0.0,85,1,1
-0.4375,-7.125,41.4375,0.004,-0.12,0.982,0.125,-0.0625,0.125,94.90196078431373,10,0.0,0.0,0.0,0.0,0.0,0.0,86,1,1
-0.4375,-7.125,41.4375,0.003,-0.122,0.984,0.0625,0.0,0.0,95.68627450980392,10,0.0,0.0,0.0,0.0,0.0,0.0,87,1,1
-0.4375,-7.125,41.4375,0.005,-0.123,0.98,-0.0625,0.0625,0.0,95.68627450980392,10,0.0,0.0,0.0,0.0,0.0,0.0,88,1,1
-0.4375,-7.125,41.4375,0.004,-0.12,0.986,-0.125,0.0625,0.0,96.07843137254902,10,0.0,0.0,0.0,0.0,0.0,0.0,89,1,1
-0.4375,-7.125,41.4375,0.005,-0.12,0.984,0.0,0.1875,-0.0625,96.07843137254902,10,0.0,0.0,0.0,0.0,0.0,0.0,90,1,1
-0.4375,-7.125,41.4375,0.001,-0.12,0.983,-0.0625,-0.1875,-0.0625,96.07843137254902,10,0.0,0.0,0.0,0.0,0.0,0.0,91,1,1
-0.4375,-7.125,41.4375,0.002,-0.121,0.984,0.125,-0.125,0.0625,96.07843137254902,10,0.0,0.0,0.0,0.0,0.0,0.0,92,1,1
-0.4375,-7.125,41.4375,0.003,-0.12,0.981,-0.0625,-0.125,0.0625,96.07843137254902,10,0.0,0.0,0.0,0.0,0.0,0.0,93,1,1
-0.4375,-7.125,41.4375,0.003,-0.121,0.982,0.125,-0.125,0.0,96.07843137254902,10,0.0,0.0,0.0,0.0,0.0,0.0,94,1,1
-0.4375,-7.125,41.4375,0.004,-0.122,0.979,0.0625,-0.125,-0.0625,96.07843137254902,10,0.0,0.0,0.0,0.0,0.0,0.0,95,1,1
-0.4375,-7.125,41.4375,0.002,-0.122,0.982,0.0625,-0.125,-0.0625,96.07843137254902,10,0.0,0.0,0.0,0.0,0.0,0.0,96,1,1
-0.4375,-7.125,41.4375,0.003,-0.123,0.983,-0.125,0.0,0.0,96.07843137254902,10,0.0,0.0,0.0,0.0,0.0,0.0,97,1,1
-0.4375,-7.125,41.4375,0.002,-0.12,0.981,0.0,0.125,0.0,95.68627450980392,10,0.0,0.0,0.0,0.0,0.0,0.0,98,1,1
-0.4375,-7.125,41.4375,0.003,-0.12,0.982,-0.0625,-0.0625,0.0625,95.68627450980392,10,0.0,0.0,0.0,0.0,0.0,0.0,99,1,1
-0.4375,-7.125,41.4375,0.004,-0.121,0.983,0.0625,0.25,-0.0625,96.07843137254902,10,0.0,0.0,0.0,0.0,0.0,0.0,100,1,1
-0.4375,-7.125,41.4375,0.001,-0.12,0.984,0.0,-0.0625,0.0,96.07843137254902,10,0.0,0.0,0.0,0.0,0.0,0.0,101,1,1
-0.4375,-7.125,41.4375,0.004,-0.122,0.981,0.0,-0.1875,0.0,96.07843137254902,10,0.0,0.0,0.0,0.0,0.0,0.0,102,1,1
-0.4375,-7.125,41.4375,0.003,-0.12,0.982,0.0,-0.125,-0.0625,96.07843137254902,10,0.0,0.0,0.0,0.0,0.0,0.0,103,1,1
-0.4375,-7.125,41.4375,0.005,-0.12,0.982,0.0625,-0.0625,0.0,96.07843137254902,10,0.0,0.0,0.0,0.0,0.0,0.0,104,1,1
-0.4375,-7.125,41.4375,0.004,-0.121,0.98,-0.125,0.0,0.0625,96.07843137254902,10,0.0,0.0,0.0,0.0,0.0,0.0,105,1,1
-0.4375,-7.125,41.4375,0.003,-0.122,0.982,-0.0625,0.0625,0.0625,96.07843137254902,10,0.0,0.0,0.0,0.0,0.0,0.0,106,1,1
-0.4375,-7.125,41.4375,0.004,-0.121,0.982,0.0,0.0,-0.0625,96.07843137254902,10,0.0,0.0,0.0,0.0,0.0,0.0,107,1,1
-0.4375,-7.125,41.4375,0.004,-0.122,0.981,0.125,0.125,-0.0625,96.07843137254902,10,0.0,0.0,0.0,0.0,0.0,0.0,108,1,1
-0.4375,-7.125,41.4375,0.004,-0.122,0.983,-0.125,0.0,0.125,95.29411764705883,10,0.0,0.0,0.0,0.0,0.0,0.0,109,1,1
-0.4375,-7.125,41.4375,0.004,-0.12,0.98,0.125,0.0625,-0.0625,95.68627450980392,10,0.0,0.0,0.0,0.0,0.0,0.0,110,1,1
-0.4375,-7.125,41.4375,0.003,-0.121,0.981,-0.1875,-0.0625,-0.0625,95.68627450980392,10,0.0,0.0,0.0,0.0,0.0,0.0,111,1,1
-0.4375,-7.125,41.4375,0.001,-0.123,0.98,0.0,0.0,0.0625,96.07843137254902,10,0.0,0.0,0.0,0.0,0.0,0.0,112,1,1
-0.4375,-7.125,41.4375,0.004,-0.12,0.984,0.0625,0.0625,-0.125,96.07843137254902,10,0.0,0.0,0.0,0.0,0.0,0.0,113,1,1
-0.4375,-7.125,41.4375,0.003,-0.122,0.981,0.0625,0.0,0.0625,96.07843137254902,10,0.0,0.0,0.0,0.0,0.0,0.0,114,1,1
-0.4375,-7.125,41.4375,0.004,-0.12,0.982,0.0625,-0.1875,-0.0625,96.07843137254902,10,0.0,0.0,0.0,0.0,0.0,0.0,115,1,1
-0.4375,-7.125,41.4375,0.001,-0.12,0.982,0.0,-0.0625,0.0,96.07843137254902,10,0.0,0.0,0.0,0.0,0.0,0.0,116,1,1
-0.4375,-7.125,41.4375,0.002,-0.121,0.98,0.0625,-0.125,-0.0625,96.07843137254902,10,0.0,0.0,0.0,0.0,0.0,0.0,117,1,1
-0.4375,-7.125,41.4375,0.001,-0.122,0.979,-0.0625,-0.125,0.0625,96.07843137254902,10,0.0,0.0,0.0,0.0,0.0,0.0,118,1,1
-0.4375,-7.125,41.4375,0.003,-0.121,0.985,0.0,-0.1875,-0.0625,96.07843137254902,10,0.0,0.0,0.0,0.0,0.0,0.0,119,1,1
-0.4375,-7.125,41.4375,0.004,-0.121,0.984,0.0,0.0625,0.0625,96.07843137254902,10,0.0,0.0,0.0,0.0,0.0,0.0,120,1,1
-0.4375,-7.125,41.4375,0.003,-0.12,0.979,-0.125,-0.0625,0.0625,95.29411764705883,10,0.0,0.0,0.0,0.0,0.0,0.0,121,1,1
-0.4375,-7.125,41.4375,0.002,-0.11900000000000001,0.982,0.0625,0.0,0.0625,95.68627450980392,10,0.0,0.0,0.0,0.0,0.0,0.0,122,1,1
-0.4375,-7.125,41.4375,0.002,-0.122,0.986,0.0625,-0.125,0.125,95.68627450980392,10,0.0,0.0,0.0,0.0,0.0,0.0,123,1,1
-0.4375,-7.125,41.4375,0.003,-0.122,0.984,0.125,0.0,0.0,96.07843137254902,10,0.0,0.0,0.0,0.0,0.0,0.0,124,1,1
-0.4375,-7.125,41.4375,0.004,-0.121,0.982,0.0,-0.1875,0.0,96.07843137254902,10,0.0,0.0,0.0,0.0,0.0,0.0,125,1,1
-0.4375,-7.125,41.4375,0.003,-0.121,0.982,-0.0625,0.0,-0.0625,95.68627450980392,10,0.0,0.0,0.0,0.0,0.0,0.0,126,1,1
-0.4375,-7.125,41.4375,0.002,-0.122,0.982,0.0,0.125,0.0,96.07843137254902,10,0.0,0.0,0.0,0.0,0.0,0.0,127,1,1
-0.4375,-7.125,41.4375,0.002,-0.122,0.983,0.125,-0.0625,0.0,96.07843137254902,10,0.0,0.0,0.0,0.0,0.0,0.0,128,1,1
-0.4375,-7.125,41.4375,0.004,-0.122,0.981,-0.1875,-0.0625,0.0625,96.07843137254902,10,0.0,0.0,0.0,0.0,0.0,0.0,129,1,1
-0.4375,-7.125,41.4375,0.005,-0.121,0.979,-0.125,0.0,0.125,96.07843137254902,10,0.0,0.0,0.0,0.0,0.0,0.0,130,1,1
-0.4375,-7.125,41.4375,0.005,-0.12,0.981,0.0,-0.1875,-0.125,96.07843137254902,10,0.0,0.0,0.0,0.0,0.0,0.0,131,1,1
-0.4375,-7.125,41.4375,0.003,-0.121,0.985,-0.0625,0.0,-0.0625,96.07843137254902,10,0.0,0.0,0.0,0.0,0.0,0.0,132,1,1
-0.4375,-7.125,41.4375,0.003,-0.122,0.982,0.1875,0.1875,0.0625,95.68627450980392,10,0.0,0.0,0.0,0.0,0.0,0.0,133,1,1
-0.4375,-7.125,41.4375,0.003,-0.12,0.981,0.0,0.0,0.125,95.68627450980392,10,0.0,0.0,0.0,0.0,0.0,0.0,134,1,1
-0.4375,-7.125,41.4375,0.003,-0.123,0.983,0.0,0.0,0.0625,95.68627450980392,10,0.0,0.0,0.0,0.0,0.0,0.0,135,1,1
-0.4375,-7.125,41.4375,0.002,-0.122,0.983,0.0,0.0625,0.0,96.07843137254902,10,0.0,0.0,0.0,0.0,0.0,0.0,136,1,1
-0.4375,-7.125,41.4375,0.003,-0.122,0.982,0.0625,0.0625,0.0,96.07843137254902,10,0.0,0.0,0.0,0.0,0.0,0.0,137,1,1
-0.4375,-7.125,41.4375,0.003,-0.122,0.983,-0.0625,0.125,0.0625,96.07843137254902,10,0.0,0.0,0.0,0.0,0.0,0.0,138,1,1
-0.4375,-7.125,41.4375,0.003,-0.122,0.984,-0.0625,0.0625,0.125,96.07843137254902,10,0.0,0.0,0.0,0.0,0.0,0.0,139,1,1
-0.4375,-7.125,41.4375,0.003,-0.121,0.98,0.0,-0.0625,0.0625,96.07843137254902,10,0.0,0.0,0.0,0.0,0.0,0.0,140,1,1
-0.4375,-7.125,41.4375,0.0,-0.12,0.983,0.1875,0.0,0.0625,96.07843137254902,10,0.0,0.0,0.0,0.0,0.0,0.0,141,1,1
-0.4375,-7.125,41.4375,0.004,-0.12,0.983,0.0625,0.0,0.0625,96.07843137254902,10,0.0,0.0,0.0,0.0,0.0,0.0,142,1,1
-0.4375,-7.125,41.4375,0.005,-0.12,0.982,0.0,0.1875,0.0625,96.07843137254902,10,0.0,0.0,0.0,0.0,0.0,0.0,143,1,1
-0.4375,-7.125,41.4375,0.003,-0.122,0.984,0.0625,0.0625,0.0,95.68627450980392,10,0.0,0.0,0.0,0.0,0.0,0.0,144,1,1
-0.4375,-7.125,41.4375,0.004,-0.122,0.982,-0.0625,0.0625,0.125,95.68627450980392,10,0.0,0.0,0.0,0.0,0.0,0.0,145,1,1
-0.4375,-7.125,41.4375,0.004,-0.122,0.983,0.125,0.125,0.125,95.68627450980392,10,0.0,0.0,0.0,0.0,0.0,0.0,146,1,1
-0.4375,-7.125,41.4375,0.005,-0.121,0.982,-0.0625,-0.125,-0.125,96.07843137254902,10,0.0,0.0,0.0,0.0,0.0,0.0,147,1,1
-0.4375,-7.125,41.4375,0.004,-0.124,0.98,-0.1875,-0.0625,0.0625,96.07843137254902,10,0.0,0.0,0.0,0.0,0.0,0.0,148,1,1
-0.4375,-7.125,41.4375,0.003,-0.122,0.983,-0.0625,-0.0625,-0.0625,96.07843137254902,10,0.0,0.0,0.0,0.0,0.0,0.0,149,1,1
-0.4375,-7.125,41.4375,0.005,-0.121,0.984,-0.0625,-0.1875,-0.0625,96.07843137254902,10,0.0,0.0,0.0,0.0,0.0,0.0,150,1,1
-0.4375,-7.125,41.4375,0.004,-0.11900000000000001,0.981,0.0625,-0.0625,0.0,96.07843137254902,10,0.0,0.0,0.0,0.0,0.0,0.0,151,1,1
-0.4375,-7.125,41.4375,0.002,-0.122,0.982,0.1875,0.25,0.0,95.68627450980392,10,0.0,0.0,0.0,0.0,0.0,0.0,152,1,1
-0.4375,-7.125,41.4375,0.002,-0.123,0.984,-0.0625,0.0625,-0.0625,96.07843137254902,10,0.0,0.0,0.0,0.0,0.0,0.0,153,1,1
-0.4375,-7.125,41.4375,0.003,-0.122,0.981,0.25,0.0625,0.0625,96.07843137254902,10,0.0,0.0,0.0,0.0,0.0,0.0,154,1,1
-0.4375,-7.125,41.4375,0.003,-0.121,0.981,-0.0625,-0.125,-0.0625,95.29411764705883,10,0.0,0.0,0.0,0.0,0.0,0.0,155,1,1
-0.4375,-7.125,41.4375,0.003,-0.122,0.981,0.0,0.125,0.0,95.68627450980392,10,0.0,0.0,0.0,0.0,0.0,0.0,156,1,1
-0.4375,-7.125,41.4375,0.004,-0.12,0.983,0.125,0.0625,0.0,95.68627450980392,10,0.0,0.0,0.0,0.0,0.0,0.0,157,1,1
-0.4375,-7.125,41.4375,0.003,-0.121,0.984,0.0625,0.0,-0.125,96.07843137254902,10,0.0,0.0,0.0,0.0,0.0,0.0,158,1,1
-0.4375,-7.125,41.4375,0.004,-0.121,0.981,0.0,-0.25,0.0,96.07843137254902,10,0.0,0.0,0.0,0.0,0.0,0.0,159,1,1
-0.4375,-7.125,41.4375,0.003,-0.12,0.985,-0.125,-0.1875,0.0625,96.07843137254902,10,0.0,0.0,0.0,0.0,0.0,0.0,160,1,1
-0.4375,-7.125,41.4375,0.004,-0.12,0.982,0.125,0.0,0.125,96.07843137254902,10,0.0,0.0,0.0,0.0,0.0,0.0,161,1,1
-0.4375,-7.125,41.4375,0.003,-0.121,0.981,0.0,0.0,0.1875,96.07843137254902,10,0.0,0.0,0.0,0.0,0.0,0.0,162,1,1
-0.4375,-7.125,41.4375,0.004,-0.122,0.982,0.0625,-0.1875,0.0,96.07843137254902,10,0.0,0.0,0.0,0.0,0.0,0.0,163,1,1
-0.4375,-7.125,41.4375,0.003,-0.12,0.981,0.0,0.0,-0.125,96.07843137254902,10,0.0,0.0,0.0,0.0,0.0,0.0,164,1,1
-0.4375,-7.125,41.4375,0.004,-0.121,0.983,0.125,0.125,0.0,96.07843137254902,10,0.0,0.0,0.0,0.0,0.0,0.0,165,1,1
-0.4375,-7.125,41.4375,0.003,-0.122,0.982,-0.125,-0.1875,0.0,96.07843137254902,10,0.0,0.0,0.0,0.0,0.0,0.0,166,1,1
-0.4375,-7.125,41.4375,0.002,-0.122,0.984,0.0,0.0625,0.125,95.29411764705883,10,0.0,0.0,0.0,0.0,0.0,0.0,167,1,1
-0.4375,-7.125,41.4375,0.003,-0.121,0.983,-0.0625,-0.125,0.0,95.68627450980392,10,0.0,0.0,0.0,0.0,0.0,0.0,168,1,1
-0.4375,-7.125,41.4375,0.004,-0.121,0.982,-0.0625,0.0625,-0.0625,95.68627450980392,10,0.0,0.0,0.0,0.0,0.0,0.0,169,1,1
-0.4375,-7.125,41.4375,0.002,-0.122,0.981,0.0625,0.0,0.0,96.07843137254902,10,0.0,0.0,0.0,0.0,0.0,0.0,170,1,1
-0.4375,-7.125,41.4375,0.002,-0.121,0.983,-0.125,0.0,0.0,96.07843137254902,10,0.0,0.0,0.0,0.0,0.0,0.0,171,1,1
-0.4375,-7.125,41.4375,0.002,-0.122,0.983,0.125,0.125,-0.0625,96.07843137254902,10,0.0,0.0,0.0,0.0,0.0,0.0,172,1,1
-0.4375,-7.125,41.4375,0.004,-0.11900000000000001,0.985,-0.0625,-0.125,-0.0625,96.07843137254902,10,0.0,0.0,0.0,0.0,0.0,0.0,173,1,1
-0.4375,-7.125,41.4375,0.003,-0.12,0.981,0.125,-0.125,0.0625,96.07843137254902,10,0.0,0.0,0.0,0.0,0.0,0.0,174,1,1
-0.4375,-7.125,41.4375,0.004,-0.11900000000000001,0.981,0.125,0.0625,0.0625,96.07843137254902,10,0.0,0.0,0.0,0.0,0.0,0.0,175,1,1
-0.4375,-7.125,41.4375,0.002,-0.122,0.98,0.1875,0.0,0.1875,96.07843137254902,10,0.0,0.0,0.0,0.0,0.0,0.0,176,1,1
-0.4375,-7.125,41.4375,0.002,-0.12,0.981,-0.125,0.1875,0.1875,96.07843137254902,10,0.0,0.0,0.0,0.0,0.0,0.0,177,1,1
-0.4375,-7.125,41.4375,0.004,-0.123,0.981,0.125,0.0,0.125,96.07843137254902,10,0.0,0.0,0.0,0.0,0.0,0.0,178,1,1
-0.4375,-7.125,41.4375,0.003,-0.122,0.981,-0.125,-0.125,-0.0625,95.29411764705883,10,0.0,0.0,0.0,0.0,0.0,0.0,179,1,1
-0.4375,-7.125,41.4375,0.002,-0.121,0.981,0.0,-0.125,-0.0625,95.68627450980392,10,0.0,0.0,0.0,0.0,0.0,0.0,180,1,1
-0.4375,-7.125,41.4375,0.004,-0.12,0.983,-0.1875,-0.125,0.0625,95.68627450980392,10,0.0,0.0,0.0,0.0,0.0,0.0,181,1,1
-0.4375,-7.125,41.4375,0.002,-0.123,0.984,0.125,0.25,0.0,96.07843137254902,10,0.0,0.0,0.0,0.0,0.0,0.0,182,1,1
-0.4375,-7.125,41.4375,0.003,-0.122,0.981,-0.1875,-0.125,0.0625,96.07843137254902,10,0.0,0.0,0.0,0.0,0.0,0.0,183,1,1
-0.4375,-7.125,41.4375,0.003,-0.121,0.983,0.0,-0.0625,0.0,96.07843137254902,10,0.0,0.0,0.0,0.0,0.0,0.0,184,1,1
-0.4375,-7.125,41.4375,0.002,-0.121,0.983,-0.1875,0.1875,0.125,96.07843137254902,10,0.0,0.0,0.0,0.0,0.0,0.0,185,1,1
-0.4375,-7.125,41.4375,0.007,-0.121,0.991,-0.0625,0.0625,-0.1875,96.07843137254902,10,0.0,0.0,0.0,0.0,0.0,0.0,186,1,1
-0.4375,-7.125,41.4375,0.007,-0.124,0.984,-0.1875,-0.1875,0.0,96.07843137254902,10,0.0,0.0,0.0,0.0,0.0,0.0,187,1,1
-0.4375,-7.125,41.4375,0.001,-0.122,0.977,-0.125,0.1875,-0.125,96.07843137254902,10,0.0,0.0,0.0,0.0,0.0,0.0,188,1,1
-0.4375,-7.125,41.4375,0.003,-0.11900000000000001,0.983,-0.125,-0.0625,0.0,96.07843137254902,10,0.0,0.0,0.0,0.0,0.0,0.0,189,1,1
-0.4375,-7.125,41.4375,0.004,-0.121,0.983,0.0,0.25,0.0,96.07843137254902,10,0.0,0.0,0.0,0.0,0.0,0.0,190,1,1
-0.4375,-7.125,41.4375,0.004,-0.123,0.983,0.125,-0.0625,0.0,95.68627450980392,10,0.0,0.0,0.0,0.0,0.0,0.0,191,1,1
-0.4375,-7.125,41.4375,0.004,-0.122,0.983,0.0625,0.0625,0.0625,95.68627450980392,10,0.0,0.0,0.0,0.0,0.0,0.0,192,1,1
-0.4375,-7.125,41.4375,0.003,-0.11900000000000001,0.981,0.0,0.125,0.0,96.07843137254902,10,0.0,0.0,0.0,0.0,0.0,0.0,193,1,1
-0.4375,-7.125,41.4375,0.002,-0.122,0.981,-0.0625,-0.0625,0.125,96.07843137254902,10,0.0,0.0,0.0,0.0,0.0,0.0,194,1,1
-0.4375,-7.125,41.4375,0.002,-0.121,0.981,-0.1875,0.0625,-0.0625,96.07843137254902,10,0.0,0.0,0.0,0.0,0.0,0.0,195,1,1
-0.4375,-7.125,41.4375,0.003,-0.12,0.982,0.0625,0.125,-0.0625,96.07843137254902,10,0.0,0.0,0.0,0.0,0.0,0.0,196,1,1
-0.4375,-7.125,41.4375,0.005,-0.12,0.982,0.125,-0.0625,0.125,96.07843137254902,10,0.0,0.0,0.0,0.0,0.0,0.0,197,1,1
-0.4375,-7.125,41.4375,0.002,-0.121,0.984,0.125,0.0,0.125,96.07843137254902,10,0.0,0.0,0.0,0.0,0.0,0.0,198,1,1
-0.4375,-7.125,41.4375,0.004,-0.123,0.981,0.1875,0.3125,0.0625,96.07843137254902,10,0.0,0.0,0.0,0.0,0.0,0.0,199,1,1
-0.4375,-7.125,41.4375,0.004,-0.121,0.981,0.0625,0.25,-0.0625,96.07843137254902,10,0.0,0.0,0.0,0.0,0.0,0.0,200,1,1
-0.4375,-7.125,41.4375,0.003,-0.121,0.981,-0.0625,-0.125,0.0625,96.07843137254902,10,0.0,0.0,0.0,0.0,0.0,0.0,201,1,1
-0.4375,-7.125,41.4375,0.003,-0.12,0.982,0.0625,-0.0625,0.0625,95.68627450980392,10,0.0,0.0,0.0,0.0,0.0,0.0,202,1,1
-0.4375,-7.125,41.4375,0.003,-0.123,0.981,-0.125,0.0,0.0,95.68627450980392,10,0.0,0.0,0.0,0.0,0.0,0.0,203,1,1
-0.4375,-7.125,41.4375,0.003,-0.12,0.983,0.125,0.125,0.0,96.07843137254902,10,0.0,0.0,0.0,0.0,0.0,0.0,204,1,1
-0.4375,-7.125,41.4375,0.003,-0.122,0.982,-0.0625,0.0625,0.0,96.07843137254902,10,0.0,0.0,0.0,0.0,0.0,0.0,205,1,1
-0.4375,-7.125,41.4375,0.004,-0.121,0.982,-0.125,-0.125,0.0625,96.07843137254902,10,0.0,0.0,0.0,0.0,0.0,0.0,206,1,1
-0.4375,-7.125,41.4375,0.005,-0.123,0.98,0.0,-0.0625,0.0,96.07843137254902,10,0.0,0.0,0.0,0.0,0.0,0.0,207,1,1
-0.4375,-7.125,41.4375,0.004,-0.122,0.985,0.0,-0.3125,0.0,96.07843137254902,10,0.0,0.0,0.0,0.0,0.0,0.0,208,1,1
-0.4375,-7.125,41.4375,0.004,-0.123,0.981,-0.1875,-0.125,-0.0625,96.07843137254902,10,0.0,0.0,0.0,0.0,0.0,0.0,209,1,1
-0.4375,-7.125,41.4375,0.003,-0.121,0.982,-0.0625,-0.125,0.0625,96.07843137254902,10,0.0,0.0,0.0,0.0,0.0,0.0,210,1,1
-0.4375,-7.125,41.4375,0.003,-0.121,0.98,0.0,0.125,0.0,96.07843137254902,10,0.0,0.0,0.0,0.0,0.0,0.0,211,1,1
-0.4375,-7.125,41.4375,0.003,-0.12,0.983,0.1875,0.25,0.0625,96.07843137254902,10,0.0,0.0,0.0,0.0,0.0,0.0,212,1,1
-0.4375,-7.125,41.4375,0.003,-0.12,0.982,0.125,0.0625,0.0,95.68627450980392,10,0.0,0.0,0.0,0.0,0.0,0.0,213,1,1
-0.4375,-7.125,41.4375,0.003,-0.122,0.981,0.125,0.0625,0.0,95.68627450980392,10,0.0,0.0,0.0,0.0,0.0,0.0,214,1,1
-0.4375,-7.125,41.4375,0.004,-0.121,0.984,-0.0625,0.0,0.0,95.68627450980392,10,0.0,0.0,0.0,0.0,0.0,0.0,215,1,1
-0.4375,-7.125,41.4375,0.003,-0.121,0.982,-0.0625,0.125,0.0625,96.07843137254902,10,0.0,0.0,0.0,0.0,0.0,0.0,216,1,1
-0.4375,-7.125,41.4375,0.003,-0.121,0.981,0.0625,-0.1875,0.0,96.07843137254902,10,0.0,0.0,0.0,0.0,0.0,0.0,217,1,1
-0.4375,-7.125,41.4375,0.004,-0.12,0.982,0.0,-0.0625,0.0,96.07843137254902,10,0.0,0.0,0.0,0.0,0.0,0.0,218,1,1
-0.4375,-7.125,41.4375,0.003,-0.122,0.98,-0.0625,-0.375,-0.0625,96.07843137254902,10,0.0,0.0,0.0,0.0,0.0,0.0,219,1,1
-0.4375,-7.125,41.4375,0.003,-0.122,0.982,0.0625,-0.0625,0.0,96.07843137254902,10,0.0,0.0,0.0,0.0,0.0,0.0,220,1,1
-0.4375,-7.125,41.4375,0.003,-0.122,0.982,0.0,0.0,-0.125,96.07843137254902,10,0.0,0.0,0.0,0.0,0.0,0.0,221,1,1
-0.4375,-7.125,41.4375,0.003,-0.12,0.983,-0.125,0.1875,0.0,96.07843137254902,10,0.0,0.0,0.0,0.0,0.0,0.0,222,1,1
-0.4375,-7.125,41.4375,0.003,-0.11900000000000001,0.983,0.0,0.0625,0.0625,96.07843137254902,10,0.0,0.0,0.0,0.0,0.0,0.0,223,1,1
-0.4375,-7.125,41.4375,0.003,-0.121,0.979,0.1875,0.1875,0.1875,96.07843137254902,10,0.0,0.0,0.0,0.0,0.0,0.0,224,1,1
-0.4375,-7.125,41.4375,0.004,-0.121,0.983,-0.1875,-0.1875,0.125,95.68627450980392,10,0.0,0.0,0.0,0.0,0.0,0.0,225,1,1
-0.4375,-7.125,41.4375,0.004,-0.121,0.984,0.0,0.0,0.0,95.68627450980392,10,0.0,0.0,0.0,0.0,0.0,0.0,226,1,1
-0.4375,-7.125,41.4375,0.003,-0.12,0.982,0.0,0.125,0.0625,95.68627450980392,10,0.0,0.0,0.0,0.0,0.0,0.0,227,1,1
-0.4375,-7.125,41.4375,0.003,-0.12,0.983,0.0625,-0.25,0.0,96.07843137254902,10,0.0,0.0,0.0,0.0,0.0,0.0,228,1,1
-0.4375,-7.125,41.4375,0.003,-0.11900000000000001,0.985,0.0,0.125,0.0,96.07843137254902,10,0.0,0.0,0.0,0.0,0.0,0.0,229,1,1
-0.4375,-7.125,41.4375,0.002,-0.12,0.984,0.0,0.0,0.0625,96.07843137254902,10,0.0,0.0,0.0,0.0,0.0,0.0,230,1,1
-0.4375,-7.125,41.4375,0.002,-0.117,0.984,0.0,-0.125,0.0625,96.07843137254902,10,0.0,0.0,0.0,0.0,0.0,0.0,231,1,1
-0.4375,-7.125,41.4375,0.006,-0.12,0.981,0.0625,0.0,0.0,96.07843137254902,10,0.0,0.0,0.0,0.0,0.0,0.0,232,1,1
-0.4375,-7.125,41.4375,0.003,-0.123,0.983,-0.125,-0.0625,-0.0625,96.07843137254902,10,0.0,0.0,0.0,0.0,0.0,0.0,233,1,1
-0.4375,-7.125,41.4375,0.003,-0.122,0.982,0.0,-0.125,0.0,96.07843137254902,10,0.0,0.0,0.0,0.0,0.0,0.0,234,1,1
-0.4375,-7.125,41.4375,0.004,-0.12,0.979,0.0,0.0,0.0625,96.07843137254902,10,0.0,0.0,0.0,0.0,0.0,0.0,235,1,1
-0.4375,-7.125,41.4375,0.003,-0.123,0.982,0.125,-0.1875,-0.0625,96.07843137254902,10,0.0,0.0,0.0,0.0,0.0,0.0,236,1,1
-0.4375,-7.125,41.4375,0.004,-0.123,0.983,0.0625,-0.3125,0.0,95.68627450980392,10,0.0,0.0,0.0,0.0,0.0,0.0,237,1,1
-0.4375,-7.125,41.4375,0.002,-0.121,0.979,0.0625,0.1875,0.125,95.68627450980392,10,0.0,0.0,0.0,0.0,0.0,0.0,238,1,1
-0.4375,-7.125,41.4375,0.002,-0.121,0.984,0.25,0.3125,0.0625,96.07843137254902,10,0.0,0.0,0.0,0.0,0.0,0.0,239,1,1
-0.4375,-7.125,41.4375,0.004,-0.123,0.981,0.0,-0.125,0.0,96.07843137254902,10,0.0,0.0,0.0,0.0,0.0,0.0,240,1,1
-0.4375,-7.125,41.4375,0.003,-0.122,0.985,0.0,0.1875,0.0625,96.07843137254902,10,0.0,0.0,0.0,0.0,0.0,0.0,241,1,1
-0.4375,-7.125,41.4375,0.005,-0.124,0.977,-0.125,-0.1875,0.0,96.07843137254902,10,0.0,0.0,0.0,0.0,0.0,0.0,242,1,1
-0.4375,-7.125,41.4375,0.003,-0.11800000000000001,0.984,-0.0625,-0.125,-0.0625,96.07843137254902,10,0.0,0.0,0.0,0.0,0.0,0.0,243,1,1
-0.4375,-7.125,41.4375,0.003,-0.124,0.981,0.125,0.125,0.125,96.07843137254902,10,0.0,0.0,0.0,0.0,0.0,0.0,244,1,1
-0.4375,-7.125,41.4375,0.003,-0.122,0.983,-0.0625,0.1875,-0.0625,96.07843137254902,10,0.0,0.0,0.0,0.0,0.0,0.0,245,1,1
-0.4375,-7.125,41.4375,0.003,-0.122,0.984,-0.125,0.0,0.0,96.07843137254902,10,0.0,0.0,0.0,0.0,0.0,0.0,246,1,1
-0.4375,-7.125,41.4375,0.004,-0.11800000000000001,0.983,-0.0625,0.0,0.0625,96.07843137254902,10,0.0,0.0,0.0,0.0,0.0,0.0,247,1,1
-0.4375,-7.125,41.4375,0.002,-0.122,0.985,0.0625,-0.0625,-0.125,95.68627450980392,10,0.0,0.0,0.0,0.0,0.0,0.0,248,1,1
-0.4375,-7.125,41.4375,0.004,-0.121,0.98,0.0625,0.125,0.0625,95.68627450980392,10,0.0,0.0,0.0,0.0,0.0,0.0,249,1,1
-0.4375,-7.125,41.4375,0.003,-0.122,0.985,0.0625,0.125,0.0625,96.07843137254902,10,0.0,0.0,0.0,0.0,0.0,0.0,250,1,1
-0.4375,-7.125,41.4375,0.002,-0.12,0.983,0.0625,0.0625,0.125,96.07843137254902,10,0.0,0.0,0.0,0.0,0.0,0.0,251,1,1
-0.4375,-7.125,41.4375,0.003,-0.12,0.98,-0.0625,-0.0625,0.0625,96.07843137254902,10,0.0,0.0,0.0,0.0,0.0,0.0,252,1,1
-0.4375,-7.125,41.4375,0.003,-0.121,0.983,-0.0625,0.0,-0.125,96.07843137254902,10,0.0,0.0,0.0,0.0,0.0,0.0,253,1,1
-0.4375,-7.125,41.4375,0.003,-0.12,0.984,-0.125,-0.125,0.0625,96.07843137254902,10,0.0,0.0,0.0,0.0,0.0,0.0,254,1,1
-0.4375,-7.125,41.4375,0.003,-0.124,0.981,-0.1875,0.0625,0.0,96.07843137254902,10,0.0,0.0,0.0,0.0,0.0,0.0,255,1,1
-0.4375,-7.125,41.4375,0.002,-0.121,0.982,-0.125,0.0625,0.0,96.07843137254902,10,0.0,0.0,0.0,0.0,0.0,0.0,0,1,1
-0.4375,-7.125,41.4375,0.003,-0.11900000000000001,0.984,0.125,0.0,0.0,96.07843137254902,10,0.0,0.0,0.0,0.0,0.0,0.0,1,1,1
-0.4375,-7.125,41.4375,0.003,-0.12,0.981,-0.125,-0.125,0.0625,96.07843137254902,10,0.0,0.0,0.0,0.0,0.0,0.0,2,1,1
-0.4375,-7.125,41.4375,0.003,-0.121,0.983,0.1875,0.0,0.0,95.68627450980392,10,0.0,0.0,0.0,0.0,0.0,0.0,3,1,1
-0.4375,-7.125,41.4375,0.005,-0.12,0.984,0.0,0.125,0.125,95.68627450980392,10,0.0,0.0,0.0,0.0,0.0,0.0,4,1,1
-0.4375,-7.125,41.4375,0.003,-0.121,0.985,0.0625,-0.0625,-0.1875,95.68627450980392,10,0.0,0.0,0.0,0.0,0.0,0.0,5,1,1
-0.4375,-7.125,41.4375,0.003,-0.11900000000000001,0.983,0.0,0.0625,0.0,96.07843137254902,10,0.0,0.0,0.0,0.0,0.0,0.0,6,1,1
-0.4375,-7.125,41.4375,0.002,-0.121,0.982,0.0625,0.125,-0.0625,96.07843137254902,10,0.0,0.0,0.0,0.0,0.0,0.0,7,1,1
-0.4375,-7.125,41.4375,0.003,-0.121,0.984,-0.0625,0.0625,0.0,96.07843137254902,10,0.0,0.0,0.0,0.0,0.0,0.0,8,1,1
-0.4375,-7.125,41.4375,0.002,-0.11900000000000001,0.984,0.0,0.0625,0.0625,96.07843137254902,10,0.0,0.0,0.0,0.0,0.0,0.0,9,1,1
-0.4375,-7.125,41.4375,0.004,-0.12,0.981,0.125,-0.125,0.0625,96.07843137254902,10,0.0,0.0,0.0,0.0,0.0,0.0,10,1,1
-0.4375,-7.125,41.4375,0.003,-0.121,0.979,-0.0625,0.125,0.0,96.07843137254902,10,0.0,0.0,0.0,0.0,0.0,0.0,11,1,1
-0.4375,-7.125,41.4375,0.003,-0.121,0.98,0.0,-0.3125,0.0,96.07843137254902,10,0.0,0.0,0.0,0.0,0.0,0.0,12,1,1
-0.4375,-7.125,41.4375,0.003,-0.121,0.983,-0.0625,-0.0625,0.0,96.07843137254902,10,0.0,0.0,0.0,0.0,0.0,0.0,13,1,1
-0.4375,-7.125,41.4375,0.003,-0.121,0.985,0.0625,0.0,0.1875,96.07843137254902,10,0.0,0.0,0.0,0.0,0.0,0.0,14,1,1
-0.4375,-7.125,41.4375,0.003,-0.122,0.981,0.0,0.0625,-0.0625,95.29411764705883,10,0.0,0.0,0.0,0.0,0.0,0.0,15,1,1
-0.4375,-7.125,41.4375,0.003,-0.123,0.982,-0.1875,0.0,0.0,95.68627450980392,10,0.0,0.0,0.0,0.0,0.0,0.0,16,1,1
-0.4375,-7.125,41.4375,0.004,-0.12,0.985,-0.1875,0.0,0.0,95.68627450980392,10,0.0,0.0,0.0,0.0,0.0,0.0,17,1,1
-0.4375,-7.125,41.4375,0.003,-0.122,0.983,0.0,0.0,0.0,96.07843137254902,10,0.0,0.0,0.0,0.0,0.0,0.0,18,1,1
-0.4375,-7.125,41.4375,0.002,-0.122,0.979,0.0625,0.125,-0.1875,96.07843137254902,10,0.0,0.0,0.0,0.0,0.0,0.0,19,1,1
-0.4375,-7.125,41.4375,0.001,-0.121,0.981,0.0,0.0,0.125,96.07843137254902,10,0.0,0.0,0.0,0.0,0.0,0.0,20,1,1
-0.4375,-7.125,41.4375,0.004,-0.121,0.983,-0.125,0.125,-0.0625,96.07843137254902,10,0.0,0.0,0.0,0.0,0.0,0.0,21,1,1
-0.4375,-7.125,41.4375,0.002,-0.12,0.984,0.25,-0.125,0.0,96.07843137254902,10,0.0,0.0,0.0,0.0,0.0,0.0,22,1,1
-0.4375,-7.125,41.4375,0.004,-0.123,0.98,0.0,0.0625,0.0,96.07843137254902,10,0.0,0.0,0.0,0.0,0.0,0.0,23,1,1
-0.4375,-7.125,41.4375,0.002,-0.12,0.979,-0.0625,-0.25,0.0,96.07843137254902,10,0.0,0.0,0.0,0.0,0.0,0.0,24,1,1
-0.4375,-7.125,41.4375,0.003,-0.12,0.983,0.0,-0.1875,-0.0625,96.07843137254902,10,0.0,0.0,0.0,0.0,0.0,0.0,25,1,1
-0.4375,-7.125,41.4375,0.003,-0.121,0.982,0.0625,0.125,0.0,95.68627450980392,10,0.0,0.0,0.0,0.0,0.0,0.0,26,1,1
-0.4375,-7.125,41.4375,0.004,-0.11900000000000001,0.982,-0.0625,-0.0625,0.125,95.68627450980392,10,0.0,0.0,0.0,0.0,0.0,0.0,27,1,1
-0.4375,-7.125,41.4375,0.003,-0.121,0.98,0.0625,0.0,0.0,95.68627450980392,10,0.0,0.0,0.0,0.0,0.0,0.0,28,1,1
-0.4375,-7.125,41.4375,0.003,-0.121,0.981,-0.0625,0.0,0.0,96.07843137254902,10,0.0,0.0,0.0,0.0,0.0,0.0,29,1,1
-0.4375,-7.125,41.4375,0.002,-0.12,0.981,-0.0625,-0.125,0.0625,96.07843137254902,10,0.0,0.0,0.0,0.0,0.0,0.0,30,1,1
-0.4375,-7.125,41.4375,0.003,-0.12,0.98,0.0,0.0,0.0,96.07843137254902,10,0.0,0.0,0.0,0.0,0.0,0.0,31,1,1
-0.4375,-7.125,41.4375,0.002,-0.12,0.98,0.0,0.1875,0.0625,96.07843137254902,10,0.0,0.0,0.0,0.0,0.0,0.0,32,1,1
-0.4375,-7.125,41.4375,0.005,-0.124,0.982,0.125,0.1875,0.0,96.07843137254902,10,0.0,0.0,0.0,0.0,0.0,0.0,33,1,1
-0.4375,-7.125,41.4375,0.002,-0.121,0.981,-0.125,-0.1875,0.0625,96.07843137254902,10,0.0,0.0,0.0,0.0,0.0,0.0,34,1,1
-0.4375,-7.125,41.4375,0.004,-0.12,0.982,0.0,0.0625,-0.0625,96.07843137254902,10,0.0,0.0,0.0,0.0,0.0,0.0,35,1,1
-0.4375,-7.125,41.4375,0.003,-0.12,0.98,-0.0625,0.0625,0.0625,96.07843137254902,10,0.0,0.0,0.0,0.0,0.0,0.0,36,1,1
-0.4375,-7.125,41.4375,0.003,-0.11900000000000001,0.981,-0.125,-0.0625,0.0625,96.07843137254902,10,0.0,0.0,0.0,0.0,0.0,0.0,37,1,1
-0.4375,-7.125,41.4375,0.003,-0.121,0.978,-0.0625,0.0,0.0,95.68627450980392,10,0.0,0.0,0.0,0.0,0.0,0.0,38,1,1
-0.4375,-7.125,41.4375,0.003,-0.11800000000000001,0.983,0.125,-0.125,-0.125,95.29411764705883,10,0.0,0.0,0.0,0.0,0.0,0.0,39,1,1
-0.4375,-7.125,41.4375,0.003,-0.12,0.982,0.0625,-0.1875,-0.125,95.68627450980392,10,0.0,0.0,0.0,0.0,0.0,0.0,40,1,1
-0.4375,-7.125,41.4375,0.004,-0.12,0.985,-0.0625,-0.0625,0.0625,95.68627450980392,10,0.0,0.0,0.0,0.0,0.0,0.0,41,1,1
-0.4375,-7.125,41.4375,0.003,-0.12,0.983,-0.0625,0.1875,0.0625,96.07843137254902,10,0.0,0.0,0.0,0.0,0.0,0.0,42,1,1
-0.4375,-7.125,41.4375,0.003,-0.11800000000000001,0.985,0.125,0.1875,0.0,96.07843137254902,10,0.0,0.0,0.0,0.0,0.0,0.0,43,1,1
-0.4375,-7.125,41.4375,0.003,-0.121,0.98,0.125,0.0,0.125,96.07843137254902,10,0.0,0.0,0.0,0.0,0.0,0.0,44,1,1
-0.4375,-7.125,41.4375,0.003,-0.121,0.981,-0.0625,-0.0625,0.0625,96.07843137254902,10,0.0,0.0,0.0,0.0,0.0,0.0,45,1,1
-0.4375,-7.125,41.4375,0.005,-0.121,0.982,0.0,0.125,0.0,96.07843137254902,10,0.0,0.0,0.0,0.0,0.0,0.0,46,1,1
-0.4375,-7.125,41.4375,0.002,-0.121,0.983,0.0,-0.1875,-0.0625,96.07843137254902,10,0.0,0.0,0.0,0.0,0.0,0.0,47,1,1
-0.4375,-7.125,41.4375,0.004,-0.121,0.98,0.1875,0.0,0.0,95.68627450980392,10,0.0,0.0,0.0,0.0,0.0,0.0,48,1,1
-0.4375,-7.125,41.4375,0.003,-0.11900000000000001,0.983,0.0,0.125,0.0625,96.07843137254902,10,0.0,0.0,0.0,0.0,0.0,0.0,49,1,1
-0.4375,-7.125,41.4375,0.004,-0.121,0.981,0.1875,0.125,0.0625,96.07843137254902,10,0.0,0.0,0.0,0.0,0.0,0.0,50,1,1
-0.4375,-7.125,41.4375,0.002,-0.12,0.985,0.0625,-0.0625,-0.0625,95.29411764705883,10,0.0,0.0,0.0,0.0,0.0,0.0,51,1,1
-0.4375,-7.125,41.4375,0.003,-0.11800000000000001,0.983,0.1875,-0.0625,0.0625,95.68627450980392,10,0.0,0.0,0.0,0.0,0.0,0.0,52,1,1
-0.4375,-7.125,41.4375,0.002,-0.121,0.983,-0.125,-0.25,-0.0625,95.68627450980392,10,0.0,0.0,0.0,0.0,0.0,0.0,53,1,1
-0.4375,-7.125,41.4375,0.004,-0.12,0.983,0.125,0.0,0.125,95.68627450980392,10,0.0,0.0,0.0,0.0,0.0,0.0,54,1,1
-0.4375,-7.125,41.4375,0.004,-0.122,0.985,0.0,0.125,0.0,96.07843137254902,10,0.0,0.0,0.0,0.0,0.0,0.0,55,1,1
-0.4375,-7.125,41.4375,0.004,-0.11800000000000001,0.982,-0.0625,-0.0625,0.0625,96.07843137254902,10,0.0,0.0,0.0,0.0,0.0,0.0,56,1,1
-0.4375,-7.125,41.4375,0.003,-0.121,0.98,-0.0625,-0.0625,0.0625,96.07843137254902,10,0.0,0.0,0.0,0.0,0.0,0.0,57,1,1
-0.4375,-7.125,41.4375,0.003,-0.121,0.98,-0.125,0.0,0.0,96.07843137254902,10,0.0,0.0,0.0,0.0,0.0,0.0,58,1,1
-0.4375,-7.125,41.4375,0.003,-0.12,0.982,0.0,-0.125,0.125,96.07843137254902,10,0.0,0.0,0.0,0.0,0.0,0.0,59,1,1
-0.4375,-7.125,41.4375,0.004,-0.121,0.98,0.0625,-0.0625,0.0625,96.07843137254902,10,0.0,0.0,0.0,0.0,0.0,0.0,60,1,1
-0.4375,-7.125,41.4375,0.004,-0.122,0.982,-0.0625,0.125,0.125,96.07843137254902,10,0.0,0.0,0.0,0.0,0.0,0.0,61,1,1
-0.4375,-7.125,41.4375,0.003,-0.123,0.983,0.125,0.25,0.0,96.07843137254902,10,0.0,0.0,0.0,0.0,0.0,0.0,62,1,1
-0.4375,-7.125,41.4375,0.004,-0.11900000000000001,0.981,-0.0625,-0.0625,-0.0625,95.68627450980392,10,0.0,0.0,0.0,0.0,0.0,0.0,63,1,1
-0.4375,-7.125,41.4375,0.003,-0.12,0.984,-0.1875,-0.125,0.0,95.68627450980392,10,0.0,0.0,0.0,0.0,0.0,0.0,64,1,1
-0.4375,-7.125,41.4375,0.004,-0.12,0.985,-0.125,0.1875,0.125,96.07843137254902,10,0.0,0.0,0.0,0.0,0.0,0.0,65,1,1
-0.4375,-7.125,41.4375,0.005,-0.121,0.986,0.125,-0.1875,0.0,96.07843137254902,10,0.0,0.0,0.0,0.0,0.0,0.0,66,1,1
-0.4375,-7.125,41.4375,0.004,-0.124,0.986,0.25,-0.3125,0.125,96.07843137254902,10,0.0,0.0,0.0,0.0,0.0,0.0,67,1,1
-0.4375,-7.125,41.4375,0.003,-0.121,0.981,0.0625,0.0,0.0,96.07843137254902,10,0.0,0.0,0.0,0.0,0.0,0.0,68,1,1
-0.4375,-7.125,41.4375,0.002,-0.12,0.982,0.0,-0.25,0.0625,96.07843137254902,10,0.0,0.0,0.0,0.0,0.0,0.0,69,1,1
-0.4375,-7.125,41.4375,0.002,-0.11800000000000001,0.978,0.0,0.0,-0.0625,96.07843137254902,10,0.0,0.0,0.0,0.0,0.0,0.0,70,1,1
-0.4375,-7.125,41.4375,0.003,-0.121,0.984,0.0625,-0.0625,0.0625,96.07843137254902,10,0.0,0.0,0.0,0.0,0.0,0.0,71,1,1
-0.4375,-7.125,41.4375,0.004,-0.122,0.984,0.0,-0.0625,-0.0625,96.07843137254902,10,0.0,0.0,0.0,0.0,0.0,0.0,72,1,1
-0.4375,-7.125,41.4375,0.004,-0.12,0.982,-0.125,0.125,-0.0625,96.07843137254902,10,0.0,0.0,0.0,0.0,0.0,0.0,73,1,1
-0.4375,-7.125,41.4375,0.004,-0.12,0.98,0.0625,-0.0625,0.0,95.29411764705883,10,0.0,0.0,0.0,0.0,0.0,0.0,74,1,1
-0.4375,-7.125,41.4375,0.001,-0.12,0.981,-0.0625,-0.1875,-0.0625,95.68627450980392,10,0.0,0.0,0.0,0.0,0.0,0.0,75,1,1
-0.4375,-7.125,41.4375,0.004,-0.121,0.98,0.0,0.125,0.0,95.68627450980392,10,0.0,0.0,0.0,0.0,0.0,0.0,76,1,1
-0.4375,-7.125,41.4375,0.003,-0.121,0.984,0.0,0.1875,0.0625,96.07843137254902,10,0.0,0.0,0.0,0.0,0.0,0.0,77,1,1
-0.4375,-7.125,41.4375,0.003,-0.12,0.981,0.125,0.1875,0.0,96.07843137254902,10,0.0,0.0,0.0,0.0,0.0,0.0,78,1,1
-0.4375,-7.125,41.4375,0.002,-0.12,0.983,-0.0625,0.0,-0.0625,96.07843137254902,10,0.0,0.0,0.0,0.0,0.0,0.0,79,1,1
-0.4375,-7.125,41.4375,0.003,-0.121,0.981,0.0625,-0.0625,0.0,96.07843137254902,10,0.0,0.0,0.0,0.0,0.0,0.0,80,1,1
-0.4375,-7.125,41.4375,0.003,-0.122,0.98,0.0,-0.0625,0.0,96.07843137254902,10,0.0,0.0,0.0,0.0,0.0,0.0,81,1,1
-0.4375,-7.125,41.4375,0.004,-0.122,0.982,0.0,-0.125,-0.0625,96.07843137254902,10,0.0,0.0,0.0,0.0,0.0,0.0,82,1,1
-0.4375,-7.125,41.4375,0.003,-0.122,0.98,-0.1875,-0.1875,0.0,96.07843137254902,10,0.0,0.0,0.0,0.0,0.0,0.0,83,1,1
-0.4375,-7.125,41.4375,0.004,-0.121,0.981,0.25,-0.1875,0.0625,96.07843137254902,10,0.0,0.0,0.0,0.0,0.0,0.0,84,1,1
-0.4375,-7.125,41.4375,0.004,-0.123,0.982,0.0625,0.3125,0.0625,96.07843137254902,10,0.0,0.0,0.0,0.0,0.0,0.0,85,1,1
-0.4375,-7.125,41.4375,0.001,-0.12,0.981,0.0,-0.125,0.0,95.29411764705883,10,0.0,0.0,0.0,0.0,0.0,0.0,86,1,1
-0.4375,-7.125,41.4375,0.003,-0.12,0.982,-0.0625,-0.0625,0.0625,95.68627450980392,10,0.0,0.0,0.0,0.0,0.0,0.0,87,1,1
-0.4375,-7.125,41.4375,0.003,-0.12,0.982,0.0625,0.0,0.1875,96.07843137254902,10,0.0,0.0,0.0,0.0,0.0,0.0,88,1,1
-0.4375,-7.125,41.4375,0.002,-0.12,0.985,0.0625,0.0,0.0625,96.07843137254902,10,0.0,0.0,0.0,0.0,0.0,0.0,89,1,1
-0.4375,-7.125,41.4375,0.004,-0.121,0.98,-0.0625,0.0,0.0,96.07843137254902,10,0.0,0.0,0.0,0.0,0.0,0.0,90,1,1
-0.4375,-7.125,41.4375,0.003,-0.11900000000000001,0.983,0.25,0.0,0.0,96.07843137254902,10,0.0,0.0,0.0,0.0,0.0,0.0,91,1,1
-0.4375,-7.125,41.4375,0.004,-0.121,0.982,0.0,0.0,0.0625,96.07843137254902,10,0.0,0.0,0.0,0.0,0.0,0.0,92,1,1
-0.4375,-7.125,41.4375,0.003,-0.11900000000000001,0.98,0.0625,0.0,0.0625,96.07843137254902,10,0.0,0.0,0.0,0.0,0.0,0.0,94,1,1
-0.4375,-7.125,41.4375,0.004,-0.12,0.98,0.125,0.25,0.0625,96.07843137254902,10,0.0,0.0,0.0,0.0,0.0,0.0,95,1,1
-0.4375,-7.125,41.4375,0.004,-0.121,0.981,0.0625,0.25,0.0,96.07843137254902,10,0.0,0.0,0.0,0.0,0.0,0.0,96,1,1
-0.4375,-7.125,41.4375,0.004,-0.122,0.981,0.0,-0.0625,0.0625,96.07843137254902,10,0.0,0.0,0.0,0.0,0.0,0.0,97,1,1
-0.4375,-7.125,41.4375,0.002,-0.12,0.983,0.0625,0.1875,0.125,95.68627450980392,10,0.0,0.0,0.0,0.0,0.0,0.0,98,1,1
-0.4375,-7.125,41.4375,0.003,-0.11900000000000001,0.98,-0.0625,0.1875,0.0625,95.68627450980392,10,0.0,0.0,0.0,0.0,0.0,0.0,99,1,1
-0.4375,-7.125,41.4375,0.002,-0.121,0.98,-0.0625,0.0625,0.0625,95.68627450980392,10,0.0,0.0,0.0,0.0,0.0,0.0,100,1,1
-0.4375,-7.125,41.4375,0.003,-0.12,0.982,0.0625,0.0625,0.0,96.07843137254902,10,0.0,0.0,0.0,0.0,0.0,0.0,101,1,1
-0.4375,-7.125,41.4375,0.002,-0.121,0.982,0.0625,0.125,0.0,96.07843137254902,10,0.0,0.0,0.0,0.0,0.0,0.0,102,1,1
-0.4375,-7.125,41.4375,0.003,-0.121,0.982,0.0,0.0625,0.0,96.07843137254902,10,0.0,0.0,0.0,0.0,0.0,0.0,103,1,1
-0.4375,-7.125,41.4375,0.003,-0.122,0.982,0.0625,0.0625,-0.0625,96.07843137254902,10,0.0,0.0,0.0,0.0,0.0,0.0,104,1,1
-0.4375,-7.125,41.4375,0.004,-0.121,0.98,-0.125,-0.0625,0.0,96.07843137254902,10,0.0,0.0,0.0,0.0,0.0,0.0,105,1,1
-0.4375,-7.125,41.4375,0.003,-0.122,0.982,0.0,0.375,0.125,96.07843137254902,10,0.0,0.0,0.0,0.0,0.0,0.0,106,1,1
-0.4375,-7.125,41.4375,0.003,-0.123,0.981,-0.125,0.1875,0.0625,96.07843137254902,10,0.0,0.0,0.0,0.0,0.0,0.0,107,1,1
-0.4375,-7.125,41.4375,0.003,-0.12,0.983,0.0625,0.0625,-0.0625,96.07843137254902,10,0.0,0.0,0.0,0.0,0.0,0.0,108,1,1
-0.4375,-7.125,41.4375,0.002,-0.122,0.982,-0.125,-0.1875,0.125,96.07843137254902,10,0.0,0.0,0.0,0.0,0.0,0.0,109,1,1
-0.4375,-7.125,41.4375,0.004,-0.123,0.981,0.125,0.0625,0.0625,95.29411764705883,10,0.0,0.0,0.0,0.0,0.0,0.0,110,1,1
-0.4375,-7.125,41.4375,0.002,-0.121,0.981,0.125,0.3125,-0.0625,95.68627450980392,10,0.0,0.0,0.0,0.0,0.0,0.0,111,1,1
-0.4375,-7.125,41.4375,0.003,-0.121,0.983,-0.0625,0.0,0.0,95.68627450980392,10,0.0,0.0,0.0,0.0,0.0,0.0,112,1,1
-0.4375,-7.125,41.4375,0.004,-0.121,0.984,-0.0625,0.0,0.0625,96.07843137254902,10,0.0,0.0,0.0,0.0,0.0,0.0,113,1,1
-0.4375,-7.125,41.4375,0.002,-0.11900000000000001,0.986,0.125,0.0,-0.0625,96.07843137254902,10,0.0,0.0,0.0,0.0,0.0,0.0,114,1,1
-0.4375,-7.125,41.4375,0.001,-0.121,0.982,0.0,0.0,0.0625,96.07843137254902,10,0.0,0.0,0.0,0.0,0.0,0.0,115,1,1
-0.4375,-7.125,41.4375,0.002,-0.121,0.982,0.0,-0.1875,-0.0625,96.07843137254902,10,0.0,0.0,0.0,0.0,0.0,0.0,116,1,1
-0.4375,-7.125,41.4375,0.003,-0.121,0.983,-0.1875,-0.3125,0.0625,96.07843137254902,10,0.0,0.0,0.0,0.0,0.0,0.0,117,1,1
-0.4375,-7.125,41.4375,0.003,-0.12,0.98,-0.0625,-0.125,-0.0625,96.07843137254902,10,0.0,0.0,0.0,0.0,0.0,0.0,118,1,1
-0.4375,-7.125,41.4375,0.002,-0.121,0.983,0.0625,0.0,-0.125,96.07843137254902,10,0.0,0.0,0.0,0.0,0.0,0.0,119,1,1
-0.4375,-7.125,41.4375,0.003,-0.121,0.982,0.0625,-0.0625,0.0,96.07843137254902,10,0.0,0.0,0.0,0.0,0.0,0.0,120,1,1
-0.4375,-7.125,41.4375,0.003,-0.11900000000000001,0.984,-0.0625,-0.125,-0.1875,96.07843137254902,10,0.0,0.0,0.0,0.0,0.0,0.0,121,1,1
-0.4375,-7.125,41.4375,0.003,-0.123,0.982,0.0625,0.1875,-0.1875,95.68627450980392,10,0.0,0.0,0.0,0.0,0.0,0.0,122,1,1
-0.4375,-7.125,41.4375,0.003,-0.11900000000000001,0.983,0.0,0.125,0.0625,95.68627450980392,10,0.0,0.0,0.0,0.0,0.0,0.0,123,1,1
-0.4375,-7.125,41.4375,0.003,-0.121,0.984,-0.0625,0.0625,-0.0625,95.68627450980392,10,0.0,0.0,0.0,0.0,0.0,0.0,124,1,1
-0.4375,-7.125,41.4375,0.004,-0.12,0.983,0.125,0.0625,0.0625,96.07843137254902,10,0.0,0.0,0.0,0.0,0.0,0.0,125,1,1
-0.4375,-7.125,41.4375,0.003,-0.121,0.98,0.0625,0.0,0.1875,96.07843137254902,10,0.0,0.0,0.0,0.0,0.0,0.0,126,1,1
-0.4375,-7.125,41.4375,0.004,-0.122,0.981,-0.0625,0.0625,0.0,96.07843137254902,10,0.0,0.0,0.0,0.0,0.0,0.0,127,1,1
-0.4375,-7.125,41.4375,0.003,-0.121,0.983,-0.0625,-0.125,-0.0625,96.07843137254902,10,0.0,0.0,0.0,0.0,0.0,0.0,128,1,1
-0.4375,-7.125,41.4375,0.003,-0.121,0.98,-0.125,-0.125,-0.0625,96.07843137254902,10,0.0,0.0,0.0,0.0,0.0,0.0,129,1,1
-0.4375,-7.125,41.4375,0.004,-0.12,0.981,0.0625,-0.375,0.0,96.07843137254902,10,0.0,0.0,0.0,0.0,0.0,0.0,130,1,1
-0.4375,-7.125,41.4375,0.003,-0.12,0.981,0.0,-0.1875,-0.0625,96.07843137254902,10,0.0,0.0,0.0,0.0,0.0,0.0,131,1,1
-0.4375,-7.125,41.4375,0.002,-0.121,0.981,0.0625,-0.0625,0.125,96.07843137254902,10,0.0,0.0,0.0,0.0,0.0,0.0,132,1,1
-0.4375,-7.125,41.4375,0.003,-0.122,0.982,-0.1875,-0.0625,0.125,95.68627450980392,10,0.0,0.0,0.0,0.0,0.0,0.0,133,1,1
-0.4375,-7.125,41.4375,0.004,-0.12,0.985,0.25,0.1875,-0.125,95.68627450980392,10,0.0,0.0,0.0,0.0,0.0,0.0,134,1,1
-0.4375,-7.125,41.4375,0.005,-0.121,0.984,0.0625,0.1875,0.0625,96.07843137254902,10,0.0,0.0,0.0,0.0,0.0,0.0,135,1,1
-0.4375,-7.125,41.4375,0.001,-0.122,0.983,0.0625,0.0,0.0,96.07843137254902,10,0.0,0.0,0.0,0.0,0.0,0.0,136,1,1
-0.4375,-7.125,41.4375,0.004,-0.12,0.984,0.0,-0.0625,0.0625,96.07843137254902,10,0.0,0.0,0.0,0.0,0.0,0.0,137,1,1
-0.4375,-7.125,41.4375,0.004,-0.121,0.981,0.0625,-0.0625,0.0,96.07843137254902,10,0.0,0.0,0.0,0.0,0.0,0.0,138,1,1
-0.4375,-7.125,41.4375,0.001,-0.12,0.983,0.0,0.0,0.0625,96.07843137254902,10,0.0,0.0,0.0,0.0,0.0,0.0,139,1,1
-0.4375,-7.125,41.4375,0.002,-0.116,0.9590000000000001,-0.4375,-1.0,0.0,96.07843137254902,10,0.0,0.0,0.0,0.0,0.0,0.0,140,1,1
-0.3125,-7.0625,41.5,0.0,-0.12,0.969,1.125,3.0625,0.0,96.07843137254902,10,0.0,0.0,0.0,0.0,0.0,0.0,141,1,1
-0.5625,-7.1875,41.5,0.003,-0.11800000000000001,0.97,-1.4375,-3.75,0.1875,96.07843137254902,10,0.0,0.0,0.0,0.0,0.0,0.0,142,1,1
-3.125,-7.375,42.0,0.168,-0.228,1.065,0.4375,-66.1875,-22.4375,96.07843137254902,10,0.0,0.0,0.0,0.0,0.0,0.0,143,1,1
-10.9375,-7.1875,45.625,0.213,-0.015,0.908,-3.375,-59.25,-30.6875,95.29411764705883,10,0.0,0.0,0.0,0.0,0.0,0.0,144,1,1
-11.5,-7.1875,48.125,0.28700000000000003,-0.10400000000000001,0.9520000000000001,-4.375,18.875,-35.6875,95.68627450980392,10,0.0,0.0,0.0,0.0,0.0,0.0,145,1,1
-11.6875,-7.25,50.3125,0.077,-0.077,1.018,-2.1875,-3.0,-19.1875,95.68627450980392,10,0.0,0.0,0.0,0.0,0.0,0.0,146,1,1
-13.1875,-7.375,53.1875,0.058,-0.077,0.905,-7.4375,-8.75,-28.5625,96.07843137254902,10,0.0,0.0,0.0,0.0,0.0,0.0,147,1,1
-10.4375,-7.9375,55.25,0.34800000000000003,-0.058,1.1360000000000001,-2.625,-2.9375,-17.875,96.07843137254902,10,0.0,0.0,0.0,0.0,0.0,0.0,148,1,1
-12.625,-8.1875,57.375,0.138,-0.131,0.965,-12.5,-6.4375,-34.25,96.07843137254902,10,0.0,0.0,0.0,0.0,0.0,0.0,149,1,1
-14.1875,-8.375,59.8125,0.178,-0.21,0.839,-12.625,-6.5625,-29.0,96.07843137254902,10,0.0,0.0,0.0,0.0,0.0,0.0,150,1,1
-14.5625,-9.25,62.6875,0.226,-0.163,0.93,0.0,-13.3125,-14.0,96.07843137254902,10,0.0,0.0,0.0,0.0,0.0,0.0,151,1,1
-14.4375,-10.375,64.4375,0.225,-0.185,0.965,-19.0,12.375,0.8125,96.07843137254902,10,0.0,0.0,0.0,0.0,0.0,0.0,152,1,1
-11.375,-11.9375,64.5,0.134,-0.296,1.098,-7.0,43.625,7.9375,94.11764705882352,10,0.0,0.0,0.0,0.0,0.0,0.0,153,1,1
-7.5625,-9.9375,62.625,0.077,-0.316,1.11,36.75,21.375,21.1875,94.11764705882352,10,0.0,0.0,0.0,0.0,0.0,0.0,154,1,1
-4.0625,-5.8125,60.375,-0.124,-0.356,1.035,58.1875,36.5,33.5,93.72549019607843,10,0.0,0.0,0.0,0.0,0.0,0.0,155,1,1
-0.875,0.3125,53.625,-0.07100000000000001,-0.191,0.907,41.0625,19.5625,76.125,94.11764705882352,10,0.0,0.0,0.0,0.0,0.0,0.0,156,1,1
2.4375,2.75,46.25,-0.007,-0.059000000000000004,0.853,14.5625,44.3125,63.75,93.72549019607843,10,0.0,0.0,0.0,0.0,0.0,0.0,157,1,1
5.25,3.0625,40.6875,0.003,0.101,0.766,-14.0,18.5,41.1875,90.98039215686275,10,0.0,0.0,0.0,0.0,0.0,0.0,158,1,1
5.3125,1.0625,35.9375,0.043000000000000003,0.10300000000000001,0.867,-30.3125,-6.8125,45.5,92.94117647058823,10,0.0,0.0,0.0,0.0,0.0,0.0,159,1,1
3.5625,-2.5,33.0625,0.099,-0.008,1.059,-44.4375,-30.3125,-1.9375,92.54901960784314,10,0.0,0.0,0.0,0.0,0.0,0.0,160,1,1
-0.875,-5.4375,34.375,0.17400000000000002,0.039,1.1360000000000001,-2.875,-14.125,-22.75,94.11764705882352,10,0.0,0.0,0.0,0.0,0.0,0.0,161,1,1
-2.25,-3.1875,36.9375,0.085,0.106,1.058,39.375,-17.5625,-26.3125,94.11764705882352,10,0.0,0.0,0.0,0.0,0.0,0.0,162,1,1
-1.625,1.875,37.5,0.021,0.10200000000000001,1.061,73.0,12.125,-4.375,94.50980392156863,10,0.0,0.0,0.0,0.0,0.0,0.0,163,1,1
1.625,10.5,36.9375,-0.081,0.19,0.963,125.3125,21.1875,5.8125,94.11764705882352,10,0.0,0.0,0.0,0.0,0.0,0.0,164,1,1
1.25,19.625,36.0625,-0.014,0.277,0.677,25.875,-9.9375,6.1875,94.50980392156863,10,0.0,0.0,0.0,0.0,0.0,0.0,165,1,1
1.875,16.5625,33.3125,0.032,0.28700000000000003,0.842,-54.6875,-2.5,29.4375,93.72549019607843,10,0.0,0.0,0.0,0.0,0.0,0.0,166,1,1
1.6875,6.25,33.5625,-0.006,0.126,0.9570000000000001,-47.75,-2.0625,-13.375,94.11764705882352,10,0.0,0.0,0.0,0.0,0.0,0.0,168,1,1
1.875,1.4375,34.6875,-0.024,0.011,0.988,-41.625,0.75,-14.5,94.11764705882352,10,0.0,0.0,0.0,0.0,0.0,0.0,169,1,1
2.125,-1.0625,36.125,-0.026000000000000002,-0.023,0.97,-21.0,4.3125,-11.0,94.50980392156863,10,0.0,0.0,0.0,0.0,0.0,0.0,170,1,1
3.0625,-3.8125,36.875,-0.067,-0.095,1.018,-27.75,9.625,-6.25,93.72549019607843,10,0.0,0.0,0.0,0.0,0.0,0.0,171,1,1
2.3125,0.625,38.9375,-0.055,-0.016,1.01,64.6875,-12.125,-17.375,93.72549019607843,10,0.0,0.0,0.0,0.0,0.0,0.0,173,1,1
1.125,7.125,40.4375,0.001,0.094,1.008,66.0,-11.0,-14.25,93.33333333333333,10,0.0,0.0,0.0,0.0,0.0,0.0,174,1,1
0.5,15.375,41.5,-0.011,0.27,0.904,71.4375,-3.1875,-9.4375,94.50980392156863,10,0.0,0.0,0.0,0.0,0.0,0.0,175,1,1
-0.8125,20.8125,40.1875,0.006,0.35100000000000003,0.856,10.8125,5.5,5.375,94.11764705882352,10,0.0,0.0,0.0,0.0,0.0,0.0,177,1,1
-0.125,20.75,39.5625,-0.011,0.312,0.837,-15.9375,13.75,-2.25,94.11764705882352,10,0.0,0.0,0.0,0.0,0.0,0.0,179,1,1
-0.5625,11.5625,37.125,0.012,0.186,0.922,-43.5,-11.1875,13.1875,94.50980392156863,10,0.0,0.0,0.0,0.0,0.0,0.0,181,1,1
-2.3125,7.8125,36.9375,0.043000000000000003,0.135,0.978,-37.625,-18.9375,0.0,94.50980392156863,10,0.0,0.0,0.0,0.0,0.0,0.0,182,1,1
-3.375,2.1875,36.0625,0.064,0.029,1.012,-4.5625,-7.375,-0.125,93.72549019607843,10,0.0,0.0,0.0,0.0,0.0,0.0,184,1,1
-3.6875,2.1875,36.0,0.077,0.04,0.986,-8.75,0.8125,-0.1875,93.72549019607843,10,0.0,0.0,0.0,0.0,0.0,0.0,185,1,1
-3.4375,-0.3125,36.0,0.061,0.018000000000000002,0.986,5.5625,1.25,-3.125,93.33333333333333,10,0.0,0.0,0.0,0.0,0.0,0.0,187,1,1
-3.5625,-1.6875,36.625,0.058,-0.075,1.008,-3.375,4.0,1.0,94.50980392156863,10,0.0,0.0,0.0,0.0,0.0,0.0,189,1,1
-2.5625,-1.1875,36.0,0.01,-0.027,0.965,15.3125,10.5,9.0625,94.11764705882352,10,0.0,0.0,0.0,0.0,0.0,0.0,190,1,1
-2.5625,-0.875,36.5625,0.012,0.023,1.055,-22.0625,15.4375,-4.125,94.50980392156863,10,0.0,0.0,0.0,0.0,0.0,0.0,192,1,1
-0.875,4.3125,37.3125,0.049,0.136,0.905,22.8125,12.375,-16.625,94.11764705882352,10,0.0,0.0,0.0,0.0,0.0,0.0,194,1,1
-1.8125,4.5625,37.875,-0.027,0.089,0.929,-10.5,-20.875,19.375,94.11764705882352,10,0.0,0.0,0.0,0.0,0.0,0.0,195,1,1
-4.25,5.375,36.125,0.091,0.084,0.966,21.6875,18.625,-13.25,93.72549019607843,10,0.0,0.0,0.0,0.0,0.0,0.0,197,1,1
-4.0,6.0,37.1875,0.017,0.061,0.961,-2.8125,8.0,-8.0625,93.33333333333333,10,0.0,0.0,0.0,0.0,0.0,0.0,198,1,1
-3.0625,5.625,37.25,0.07100000000000001,0.11900000000000001,0.9400000000000001,-5.875,16.1875,4.3125,93.33333333333333,10,0.0,0.0,0.0,0.0,0.0,0.0,199,1,1
-2.625,3.3125,37.5,0.057,0.053,1.097,8.75,18.3125,-7.625,94.50980392156863,10,0.0,0.0,0.0,0.0,0.0,0.0,201,1,1
-4.0625,4.6875,38.0,0.107,0.112,0.8300000000000001,-17.3125,-27.75,9.0625,94.50980392156863,10,0.0,0.0,0.0,0.0,0.0,0.0,203,1,1
-6.5625,0.875,37.625,0.112,0.049,1.042,22.8125,8.625,-6.625,94.50980392156863,10,0.0,0.0,0.0,0.0,0.0,0.0,205,1,1
-6.0625,2.8125,37.9375,0.136,0.043000000000000003,0.9510000000000001,-9.6875,5.25,6.875,94.50980392156863,10,0.0,0.0,0.0,0.0,0.0,0.0,207,1,1
-5.75,1.4375,39.5625,0.066,0.039,1.008,0.4375,-4.9375,-17.3125,94.90196078431373,10,0.0,0.0,0.0,0.0,0.0,0.0,209,1,1
-6.25,2.125,40.375,0.109,0.056,0.981,-1.0,-4.6875,3.875,93.33333333333333,10,0.0,0.0,0.0,0.0,0.0,0.0,211,1,1
-6.5,2.1875,40.4375,0.09,0.033,0.97,-3.0,-3.8125,4.4375,94.11764705882352,10,0.0,0.0,0.0,0.0,0.0,0.0,213,1,1
-6.875,1.5625,40.5,0.111,0.01,0.972,-1.8125,-1.125,-10.4375,94.90196078431373,10,0.0,0.0,0.0,0.0,0.0,0.0,215,1,1
-7.0,1.4375,41.25,0.14300000000000002,0.016,0.969,2.6875,-4.0625,3.125,94.90196078431373,10,0.0,0.0,0.0,0.0,0.0,0.0,217,1,1
-7.8125,1.875,41.875,0.11800000000000001,0.051000000000000004,0.9500000000000001,5.6875,-4.625,-0.9375,94.90196078431373,10,0.0,0.0,0.0,0.0,0.0,0.0,219,1,1
-7.8125,0.625,41.75,0.115,0.005,0.988,-5.5625,-0.625,1.8125,94.50980392156863,10,0.0,0.0,0.0,0.0,0.0,0.0,221,1,1
-7.5625,1.375,41.8125,0.13,0.033,0.9410000000000001,10.25,0.8125,-7.1875,94.90196078431373,10,0.0,0.0,0.0,0.0,0.0,0.0,223,1,1
-7.5,1.125,43.3125,0.113,0.018000000000000002,0.991,-6.875,1.3125,0.25,92.94117647058823,10,0.0,0.0,0.0,0.0,0.0,0.0,225,1,1
-7.4375,1.9375,43.6875,0.108,0.041,0.96,4.875,-1.1875,-0.9375,94.11764705882352,10,0.0,0.0,0.0,0.0,0.0,0.0,227,1,1
-7.5625,2.5625,43.25,0.113,0.044,0.971,1.8125,1.0625,-4.1875,94.90196078431373,10,0.0,0.0,0.0,0.0,0.0,0.0,229,1,1
-7.125,2.25,43.25,0.131,0.045,0.966,-5.9375,2.625,3.6875,94.90196078431373,10,0.0,0.0,0.0,0.0,0.0,0.0,231,1,1
-6.9375,2.5625,43.875,0.092,0.048,0.9540000000000001,0.3125,-0.9375,-5.75,94.50980392156863,10,0.0,0.0,0.0,0.0,0.0,0.0,233,1,1
-6.8125,2.625,44.0625,0.127,0.043000000000000003,0.968,1.875,-0.6875,-1.0,94.90196078431373,10,0.0,0.0,0.0,0.0,0.0,0.0,235,1,1
-6.75,2.875,44.4375,0.095,0.033,0.97,-0.8125,1.5,-7.125,94.90196078431373,10,0.0,0.0,0.0,0.0,0.0,0.0,236,1,1
-6.875,3.25,44.4375,0.12,0.05,0.937,2.375,-0.75,3.875,94.50980392156863,10,0.0,0.0,0.0,0.0,0.0,0.0,237,1,1
-6.8125,2.625,44.0,0.105,0.038,0.98,-1.3125,-1.875,1.8125,94.11764705882352,10,0.0,0.0,0.0,0.0,0.0,0.0,239,1,1
-6.875,2.5625,43.75,0.114,0.049,0.963,-1.9375,0.5,-0.5625,94.11764705882352,10,0.0,0.0,0.0,0.0,0.0,0.0,241,1,1
-6.875,2.5,43.4375,0.124,0.043000000000000003,0.968,1.4375,-0.25,2.0,94.90196078431373,10,0.0,0.0,0.0,0.0,0.0,0.0,243,1,1
-6.875,2.5,43.5,0.115,0.042,0.966,-1.5625,0.5,-0.5625,94.50980392156863,10,0.0,0.0,0.0,0.0,0.0,0.0,245,1,1
-6.875,2.375,43.5625,0.122,0.037,0.975,0.8125,0.3125,1.375,94.90196078431373,10,0.0,0.0,0.0,0.0,0.0,0.0,247,1,1
-6.9375,2.1875,43.25,0.147,0.039,0.967,-3.0625,-1.125,1.75,94.50980392156863,10,0.0,0.0,0.0,0.0,0.0,0.0,249,1,1
-7.3125,2.25,44.1875,0.074,0.025,0.962,-2.1875,-0.5625,8.1875,94.90196078431373,10,0.0,0.0,0.0,0.0,0.0,0.0,251,1,1
-7.4375,1.625,42.5,0.135,0.033,0.961,-6.4375,1.8125,-4.25,94.11764705882352,10,0.0,0.0,0.0,0.0,0.0,0.0,253,1,1
-7.1875,1.25,42.5625,0.136,0.017,0.974,2.0625,0.625,2.0,94.90196078431373,10,0.0,0.0,0.0,0.0,0.0,0.0,255,1,1
-7.125,1.6875,42.6875,0.125,0.019,0.969,-0.875,0.875,5.0,94.90196078431373,10,0.0,0.0,0.0,0.0,0.0,0.0,1,1,1
-7.1875,2.125,42.625,0.109,0.038,0.9540000000000001,3.125,0.0,0.25,94.50980392156863,10,0.0,0.0,0.0,0.0,0.0,0.0,3,1,1
-7.3125,1.9375,42.5625,0.11900000000000001,0.031,0.973,1.0625,-3.9375,-3.1875,94.90196078431373,10,0.0,0.0,0.0,0.0,0.0,0.0,5,1,1
-7.5625,2.25,42.5625,0.12,0.048,0.965,0.3125,-0.1875,-2.0625,94.50980392156863,10,0.0,0.0,0.0,0.0,0.0,0.0,7,1,1
-7.5625,2.0625,42.4375,0.14200000000000002,0.035,0.982,1.5,0.625,0.375,92.94117647058823,10,0.0,0.0,0.0,0.0,0.0,0.0,9,1,1
-7.125,2.0,42.6875,0.094,0.028,0.9530000000000001,-8.0625,3.125,-0.0625,93.72549019607843,10,0.0,0.0,0.0,0.0,0.0,0.0,11,1,1
-7.375,1.8125,42.0625,0.145,0.04,0.9500000000000001,2.8125,-0.5,0.5,94.90196078431373,10,0.0,0.0,0.0,0.0,0.0,0.0,13,1,1
-7.5625,2.0,42.4375,0.1,0.032,0.965,3.125,-1.3125,2.9375,94.90196078431373,10,0.0,0.0,0.0,0.0,0.0,0.0,15,1,1
-7.6875,2.25,42.0,0.112,0.047,0.976,2.6875,-2.3125,-7.25,94.90196078431373,10,0.0,0.0,0.0,0.0,0.0,0.0,17,1,1
-7.625,2.625,42.3125,0.109,0.049,0.973,3.0,-2.75,0.0625,94.50980392156863,10,0.0,0.0,0.0,0.0,0.0,0.0,18,1,1
-7.75,3.125,42.0625,0.149,0.054,0.965,6.0625,2.9375,2.4375,94.90196078431373,10,0.0,0.0,0.0,0.0,0.0,0.0,19,1,1
-8.5625,5.625,42.875,0.12,0.091,0.933,13.875,-8.875,-6.0625,94.50980392156863,10,0.0,0.0,0.0,0.0,0.0,0.0,21,1,1
-9.0,7.0,42.6875,0.168,0.129,0.9470000000000001,2.1875,0.5625,0.3125,94.11764705882352,10,0.0,0.0,0.0,0.0,0.0,0.0,23,1,1
-9.125,7.4375,42.625,0.161,0.123,0.9490000000000001,3.9375,-5.3125,-1.8125,94.11764705882352,10,0.0,0.0,0.0,0.0,0.0,0.0,25,1,1
-9.0,7.4375,42.5,0.171,0.126,0.927,-3.6875,4.4375,3.1875,94.50980392156863,10,0.0,0.0,0.0,0.0,0.0,0.0,27,1,1
-7.1875,4.6875,42.0625,0.091,0.076,0.889,-25.25,15.0,9.375,94.50980392156863,10,0.0,0.0,0.0,0.0,0.0,0.0,29,1,1
-4.6875,-3.1875,39.1875,0.089,-0.07200000000000001,1.037,-26.6875,-0.1875,12.8125,94.90196078431373,10,0.0,0.0,0.0,0.0,0.0,0.0,31,1,1
-3.0,-6.4375,38.0,0.057,-0.111,0.981,-19.4375,0.5,2.5625,94.90196078431373,10,0.0,0.0,0.0,0.0,0.0,0.0,33,1,1
-2.75,-9.3125,37.75,0.06,-0.163,0.9490000000000001,-12.0,2.0,5.875,94.90196078431373,10,0.0,0.0,0.0,0.0,0.0,0.0,35,1,1
-2.375,-12.125,37.125,0.035,-0.212,0.984,-9.5625,-1.8125,2.875,94.11764705882352,10,0.0,0.0,0.0,0.0,0.0,0.0,37,1,1
-2.25,-13.9375,36.625,0.056,-0.249,0.983,-5.0,2.625,2.8125,93.72549019607843,10,0.0,0.0,0.0,0.0,0.0,0.0,39,1,1
-2.3125,-13.6875,36.6875,0.062,-0.23600000000000002,0.966,1.0625,-2.4375,0.3125,94.90196078431373,10,0.0,0.0,0.0,0.0,0.0,0.0,41,1,1
-5.0,-10.3125,37.75,0.08,-0.209,1.04,40.375,-31.9375,-14.3125,94.90196078431373,10,0.0,0.0,0.0,0.0,0.0,0.0,43,1,1
-7.9375,-2.1875,40.0625,0.122,-0.025,0.914,20.375,-7.125,-6.5,94.90196078431373,10,0.0,0.0,0.0,0.0,0.0,0.0,45,1,1
-8.3125,-1.0625,40.375,0.148,-0.033,1.031,11.125,-9.25,-6.625,94.90196078431373,10,0.0,0.0,0.0,0.0,0.0,0.0,46,1,1
-10.8125,5.3125,42.1875,0.212,0.058,0.9420000000000001,39.25,-17.375,-16.625,94.50980392156863,10,0.0,0.0,0.0,0.0,0.0,0.0,48,1,1
-10.375,8.375,44.4375,0.116,0.128,0.888,-19.1875,8.0,6.1875,92.94117647058823,10,0.0,0.0,0.0,0.0,0.0,0.0,50,1,1
-7.0,0.5625,42.0625,0.108,-0.007,0.907,-52.9375,15.75,12.625,94.11764705882352,10,0.0,0.0,0.0,0.0,0.0,0.0,52,1,1
-1.625,-11.0625,38.0,0.035,-0.17300000000000001,1.065,-45.375,7.6875,32.125,94.90196078431373,10,0.0,0.0,0.0,0.0,0.0,0.0,54,1,1
-0.6875,-14.6875,35.5625,0.048,-0.263,0.99,8.3125,-2.0625,-8.1875,94.90196078431373,10,0.0,0.0,0.0,0.0,0.0,0.0,56,1,1
-1.5,-13.5625,36.4375,0.035,-0.233,0.996,4.625,-4.5,-1.375,94.90196078431373,10,0.0,0.0,0.0,0.0,0.0,0.0,58,1,1
-5.5,-6.8125,38.4375,0.134,-0.14100000000000001,1.0190000000000001,64.3125,-19.375,-24.875,94.90196078431373,10,0.0,0.0,0.0,0.0,0.0,0.0,60,1,1
-7.25,-0.6875,40.625,0.089,-0.002,0.885,53.8125,-14.25,-25.8125,94.50980392156863,10,0.0,0.0,0.0,0.0,0.0,0.0,61,1,1
-8.8125,3.4375,41.9375,0.139,0.056,0.937,-0.6875,-3.75,5.25,94.90196078431373,10,0.0,0.0,0.0,0.0,0.0,0.0,63,1,1
-8.3125,2.1875,41.0625,0.139,0.038,0.878,-19.0625,13.25,3.6875,94.11764705882352,10,0.0,0.0,0.0,0.0,0.0,0.0,65,1,1
-4.875,-6.0625,39.5,0.058,-0.11,0.986,-53.1875,23.4375,15.0,94.11764705882352,10,0.0,0.0,0.0,0.0,0.0,0.0,67,1,1
-2.25,-11.75,36.6875,0.082,-0.214,1.0030000000000001,-6.625,-3.375,4.5625,94.90196078431373,10,0.0,0.0,0.0,0.0,0.0,0.0,69,1,1
-2.625,-11.6875,37.0625,0.035,-0.195,0.968,0.375,0.0625,-0.125,94.50980392156863,10,0.0,0.0,0.0,0.0,0.0,0.0,71,1,1
-2.75,-11.6875,36.625,0.063,-0.202,0.965,1.4375,-3.6875,0.3125,94.50980392156863,10,0.0,0.0,0.0,0.0,0.0,0.0,73,1,1
-4.125,-11.9375,36.25,0.058,-0.198,1.0090000000000001,1.75,-7.1875,0.375,94.90196078431373,10,0.0,0.0,0.0,0.0,0.0,0.0,75,1,1
-6.8125,-9.5,34.8125,0.112,-0.146,0.9580000000000001,26.875,-27.1875,7.1875,94.90196078431373,10,0.0,0.0,0.0,0.0,0.0,0.0,77,1,1
-9.1875,-7.25,33.375,0.085,-0.166,0.924,18.4375,-27.6875,9.5,94.90196078431373,10,0.0,0.0,0.0,0.0,0.0,0.0,78,1,1
-12.5,-5.625,31.625,0.133,-0.13,0.901,13.375,-20.1875,17.9375,92.54901960784314,10,0.0,0.0,0.0,0.0,0.0,0.0,79,1,1
-12.5625,-5.8125,25.625,0.318,-0.077,0.9550000000000001,13.4375,0.5625,10.1875,94.11764705882352,10,0.0,0.0,0.0,0.0,0.0,0.0,81,1,1
-13.9375,-3.0,27.375,0.213,-0.037,0.927,20.0,-17.375,-11.5625,94.90196078431373,10,0.0,0.0,0.0,0.0,0.0,0.0,83,1,1
-15.5,0.4375,26.8125,0.295,-0.001,0.9450000000000001,31.0,-29.125,-1.3125,94.90196078431373,10,0.0,0.0,0.0,0.0,0.0,0.0,85,1,1
-19.0625,8.5625,29.875,0.301,0.14300000000000002,0.893,23.0,-18.5625,-26.6875,94.90196078431373,10,0.0,0.0,0.0,0.0,0.0,0.0,87,1,1
-22.1875,13.0625,31.0625,0.374,0.2,0.8130000000000001,6.0625,-16.625,3.375,94.90196078431373,10,0.0,0.0,0.0,0.0,0.0,0.0,89,1,1
-16.375,6.875,29.4375,0.262,0.044,0.8290000000000001,-43.875,63.125,19.4375,94.90196078431373,10,0.0,0.0,0.0,0.0,0.0,0.0,91,1,1
-8.375,-4.0625,25.4375,0.153,-0.057,0.994,-31.9375,-2.5,19.625,94.11764705882352,10,0.0,0.0,0.0,0.0,0.0,0.0,93,1,1
-4.4375,-7.25,23.1875,0.125,-0.128,0.9570000000000001,4.9375,-1.75,-3.375,93.72549019607843,10,0.0,0.0,0.0,0.0,0.0,0.0,95,1,1
-4.5625,-7.3125,23.875,0.083,-0.135,0.977,-3.6875,0.0,-0.375,94.90196078431373,10,0.0,0.0,0.0,0.0,0.0,0.0,97,1,1
-4.25,-7.625,23.8125,0.082,-0.131,0.96,-3.75,1.9375,-2.125,94.90196078431373,10,0.0,0.0,0.0,0.0,0.0,0.0,99,1,1
-4.375,-8.5625,23.9375,0.093,-0.14400000000000002,0.988,-4.5,-1.0,0.3125,94.90196078431373,10,0.0,0.0,0.0,0.0,0.0,0.0,101,1,1
-5.25,-8.625,25.1875,0.095,-0.161,1.0070000000000001,0.625,-6.5,-11.1875,94.90196078431373,10,0.0,0.0,0.0,0.0,0.0,0.0,103,1,1
-7.375,-7.6875,26.5625,0.16,-0.145,0.991,15.25,-29.125,-22.9375,94.50980392156863,10,0.0,0.0,0.0,0.0,0.0,0.0,104,1,1
-13.6875,-1.3125,31.375,0.19,-0.026000000000000002,0.9480000000000001,33.5625,-26.25,-17.6875,94.90196078431373,10,0.0,0.0,0.0,0.0,0.0,0.0,106,1,1
-17.75,2.9375,32.0625,0.308,0.029,0.923,41.125,-53.25,-12.875,93.33333333333333,10,0.0,0.0,0.0,0.0,0.0,0.0,107,1,1
-25.125,13.0,36.1875,0.41400000000000003,0.186,0.864,41.4375,-33.125,-35.9375,94.11764705882352,10,0.0,0.0,0.0,0.0,0.0,0.0,109,1,1
-26.1875,22.6875,40.0625,0.377,0.34500000000000003,0.752,20.6875,-11.75,-14.75,94.90196078431373,10,0.0,0.0,0.0,0.0,0.0,0.0,111,1,1
-27.4375,25.75,39.5625,0.446,0.367,0.707,9.0625,15.75,0.625,94.50980392156863,10,0.0,0.0,0.0,0.0,0.0,0.0,113,1,1
-22.125,18.625,36.5625,0.357,0.245,0.851,-38.875,35.75,22.0,94.90196078431373,10,0.0,0.0,0.0,0.0,0.0,0.0,115,1,1
-20.625,14.9375,35.25,0.314,0.241,0.8250000000000001,-21.8125,16.25,15.5625,94.90196078431373,10,0.0,0.0,0.0,0.0,0.0,0.0,116,1,1
-18.5625,10.25,32.8125,0.314,0.14200000000000002,0.893,-31.4375,23.875,28.25,94.90196078431373,10,0.0,0.0,0.0,0.0,0.0,0.0,117,1,1
-16.6875,6.3125,31.25,0.299,0.13,0.9550000000000001,-22.3125,27.8125,12.6875,94.50980392156863,10,0.0,0.0,0.0,0.0,0.0,0.0,118,1,1
-16.0,3.875,30.5,0.296,0.05,0.9460000000000001,1.0,-1.75,-2.6875,94.11764705882352,10,0.0,0.0,0.0,0.0,0.0,0.0,120,1,1
-16.0,4.1875,31.125,0.298,0.062,0.932,2.25,-6.5625,-7.6875,94.11764705882352,10,0.0,0.0,0.0,0.0,0.0,0.0,121,1,1
-16.875,5.0,32.4375,0.28300000000000003,0.094,0.924,3.1875,-12.1875,-17.0625,94.11764705882352,10,0.0,0.0,0.0,0.0,0.0,0.0,122,1,1
-17.875,5.75,34.0,0.303,0.09,0.905,0.0,-10.375,-17.125,94.11764705882352,10,0.0,0.0,0.0,0.0,0.0,0.0,123,1,1
-20.6875,6.625,37.9375,0.336,0.112,0.89,-0.8125,-16.125,-13.3125,94.90196078431373,10,0.0,0.0,0.0,0.0,0.0,0.0,125,1,1
-22.1875,6.8125,41.6875,0.355,0.123,0.875,-7.125,-1.875,-22.5,94.90196078431373,10,0.0,0.0,0.0,0.0,0.0,0.0,127,1,1
-21.5,6.0,45.75,0.34900000000000003,0.121,0.921,-11.75,4.4375,-15.0625,94.90196078431373,10,0.0,0.0,0.0,0.0,0.0,0.0,129,1,1
-19.4375,5.6875,48.1875,0.296,0.107,0.892,-8.25,3.375,-8.8125,94.50980392156863,10,0.0,0.0,0.0,0.0,0.0,0.0,131,1,1
-18.6875,4.75,48.6875,0.295,0.09,0.898,-14.5,4.75,3.9375,94.90196078431373,10,0.0,0.0,0.0,0.0,0.0,0.0,132,1,1
-18.25,2.9375,48.5,0.305,0.073,0.9500000000000001,-11.5,4.875,3.0,94.90196078431373,10,0.0,0.0,0.0,0.0,0.0,0.0,133,1,1
-18.125,1.9375,48.625,0.331,0.036000000000000004,0.929,-12.4375,0.25,-3.0,94.90196078431373,10,0.0,0.0,0.0,0.0,0.0,0.0,134,1,1
-17.5625,1.5,49.25,0.29,0.016,0.936,-0.3125,-0.875,-4.5625,92.54901960784314,10,0.0,0.0,0.0,0.0,0.0,0.0,135,1,1
-17.6875,1.5,49.375,0.266,0.034,0.932,-4.625,1.0,1.0,94.11764705882352,10,0.0,0.0,0.0,0.0,0.0,0.0,136,1,1
-18.1875,1.4375,48.6875,0.322,0.033,0.921,-1.875,-1.625,-0.0625,94.11764705882352,10,0.0,0.0,0.0,0.0,0.0,0.0,138,1,1
-18.625,1.75,48.625,0.314,0.044,0.911,3.6875,-3.25,0.4375,94.90196078431373,10,0.0,0.0,0.0,0.0,0.0,0.0,140,1,1
-18.75,1.75,48.5,0.312,0.026000000000000002,0.917,-2.8125,-2.5625,1.6875,94.90196078431373,10,0.0,0.0,0.0,0.0,0.0,0.0,141,1,1
-18.5,1.125,47.5,0.343,0.025,0.9500000000000001,0.9375,9.1875,5.0625,94.90196078431373,10,0.0,0.0,0.0,0.0,0.0,0.0,143,1,1
-18.375,2.25,47.75,0.28700000000000003,0.047,0.902,-2.125,-8.625,-3.0625,94.50980392156863,10,0.0,0.0,0.0,0.0,0.0,0.0,145,1,1
-18.8125,1.875,47.8125,0.308,0.035,0.973,2.125,-9.1875,1.4375,94.90196078431373,10,0.0,0.0,0.0,0.0,0.0,0.0,146,1,1
-19.25,3.0625,47.8125,0.319,0.065,0.883,3.75,2.25,-0.5625,94.90196078431373,10,0.0,0.0,0.0,0.0,0.0,0.0,148,1,1
-18.9375,2.5625,47.75,0.315,0.034,0.929,-2.875,-0.1875,0.5,94.11764705882352,10,0.0,0.0,0.0,0.0,0.0,0.0,149,1,1
-19.0,2.1875,47.75,0.3,0.033,0.9420000000000001,-6.4375,1.875,2.3125,94.11764705882352,10,0.0,0.0,0.0,0.0,0.0,0.0,150,1,1
-18.9375,1.4375,46.75,0.325,0.045,0.93,0.0,-0.125,2.0,94.90196078431373,10,0.0,0.0,0.0,0.0,0.0,0.0,152,1,1
-18.875,1.0,46.75,0.304,0.017,0.9450000000000001,-2.875,-1.75,-0.125,94.90196078431373,10,0.0,0.0,0.0,0.0,0.0,0.0,154,1,1
-18.875,1.9375,46.1875,0.358,0.04,0.92,16.375,-0.75,1.5,94.50980392156863,10,0.0,0.0,0.0,0.0,0.0,0.0,156,1,1
-18.125,4.1875,47.25,0.3,0.055,0.91,9.5,-3.5625,-12.5625,94.90196078431373,10,0.0,0.0,0.0,0.0,0.0,0.0,158,1,1
-17.9375,4.875,47.9375,0.279,0.07200000000000001,0.921,0.5,3.375,-3.1875,94.90196078431373,10,0.0,0.0,0.0,0.0,0.0,0.0,159,1,1
-17.875,4.9375,48.0,0.297,0.081,0.911,-1.375,3.75,3.8125,94.90196078431373,10,0.0,0.0,0.0,0.0,0.0,0.0,160,1,1
-17.9375,4.6875,47.8125,0.311,0.084,0.93,-1.375,-1.1875,1.0,94.50980392156863,10,0.0,0.0,0.0,0.0,0.0,0.0,161,1,1
-17.5625,4.3125,48.0625,0.28700000000000003,0.067,0.928,1.0625,-1.0,-0.625,94.11764705882352,10,0.0,0.0,0.0,0.0,0.0,0.0,163,1,1
-17.0,3.8125,47.875,0.267,0.07,0.9510000000000001,3.4375,-1.5625,-0.75,94.90196078431373,10,0.0,0.0,0.0,0.0,0.0,0.0,165,1,1
-16.8125,4.125,47.4375,0.28300000000000003,0.062,0.921,4.9375,-0.5,3.6875,94.90196078431373,10,0.0,0.0,0.0,0.0,0.0,0.0,166,1,1
-14.6875,4.5,45.125,0.247,0.064,0.978,9.875,20.125,18.5625,94.90196078431373,10,0.0,0.0,0.0,0.0,0.0,0.0,168,1,1
-13.8125,6.875,43.9375,0.25,0.131,0.881,-13.25,-8.75,-9.5,94.50980392156863,10,0.0,0.0,0.0,0.0,0.0,0.0,170,1,1
-13.25,5.5625,44.9375,0.198,0.094,0.97,-10.75,-7.0,-10.9375,94.90196078431373,10,0.0,0.0,0.0,0.0,0.0,0.0,171,1,1
-11.875,4.4375,45.25,0.182,0.08,1.0,-12.625,22.1875,8.125,94.90196078431373,10,0.0,0.0,0.0,0.0,0.0,0.0,172,1,1
-9.0625,4.5625,44.0625,0.193,0.058,1.034,19.0,27.375,7.4375,94.50980392156863,10,0.0,0.0,0.0,0.0,0.0,0.0,173,1,1
-6.5625,7.0625,42.6875,0.084,0.219,0.978,35.6875,18.25,20.5,94.50980392156863,10,0.0,0.0,0.0,0.0,0.0,0.0,174,1,1
-6.9375,11.5,41.0625,0.196,0.199,0.865,42.8125,-25.25,-8.0625,94.11764705882352,10,0.0,0.0,0.0,0.0,0.0,0.0,175,1,1
-7.5625,14.875,41.6875,0.157,0.234,0.983,37.6875,-12.125,-9.0625,94.11764705882352,10,0.0,0.0,0.0,0.0,0.0,0.0,176,1,1
-9.625,19.5,42.5,0.151,0.27,1.0190000000000001,56.6875,-19.875,-11.5625,94.11764705882352,10,0.0,0.0,0.0,0.0,0.0,0.0,177,1,1
-11.75,27.9375,43.8125,0.23500000000000001,0.459,0.798,70.5,-32.9375,-27.3125,94.90196078431373,10,0.0,0.0,0.0,0.0,0.0,0.0,178,1,1
-11.875,34.4375,46.4375,0.19,0.533,0.803,59.3125,-22.3125,-30.0,94.90196078431373,10,0.0,0.0,0.0,0.0,0.0,0.0,179,1,1
-11.3125,46.125,51.0,0.187,0.629,0.588,18.9375,-10.3125,-18.875,94.50980392156863,10,0.0,0.0,0.0,0.0,0.0,0.0,181,1,1
-10.375,46.125,51.0625,0.166,0.65,0.594,-17.0,8.875,11.375,94.50980392156863,10,0.0,0.0,0.0,0.0,0.0,0.0,183,1,1
-10.1875,42.75,48.625,0.163,0.628,0.674,-23.1875,14.625,23.5625,94.90196078431373,10,0.0,0.0,0.0,0.0,0.0,0.0,184,1,1
-10.125,39.25,45.3125,0.107,0.621,0.664,-43.9375,22.0,27.4375,94.90196078431373,10,0.0,0.0,0.0,0.0,0.0,0.0,185,1,1
-11.5625,31.3125,40.6875,0.147,0.438,0.58,-96.3125,11.875,53.625,94.90196078431373,10,0.0,0.0,0.0,0.0,0.0,0.0,186,1,1
-13.75,16.625,36.5625,0.242,0.169,0.918,-147.4375,13.6875,63.0625,94.50980392156863,10,0.0,0.0,0.0,0.0,0.0,0.0,187,1,1
-15.75,2.4375,32.3125,0.366,-0.031,1.041,-103.625,-2.125,43.3125,94.11764705882352,10,0.0,0.0,0.0,0.0,0.0,0.0,188,1,1
-14.75,-5.0,31.9375,0.281,-0.065,1.029,12.625,-4.125,-18.0,93.72549019607843,10,0.0,0.0,0.0,0.0,0.0,0.0,190,1,1
-15.75,-1.75,35.0625,0.253,-0.003,0.903,-2.6875,-3.3125,-1.8125,94.90196078431373,10,0.0,0.0,0.0,0.0,0.0,0.0,192,1,1
-16.1875,-2.0625,35.25,0.292,-0.025,0.981,0.625,4.125,4.5625,94.90196078431373,10,0.0,0.0,0.0,0.0,0.0,0.0,194,1,1
-11.875,-0.375,34.875,0.215,0.008,0.9450000000000001,2.0625,34.875,2.625,94.50980392156863,10,0.0,0.0,0.0,0.0,0.0,0.0,196,1,1
-7.375,-0.125,34.8125,0.088,0.011,0.892,-6.375,36.5625,-2.125,94.50980392156863,10,0.0,0.0,0.0,0.0,0.0,0.0,197,1,1
-5.0,-2.4375,34.0625,0.08,-0.075,0.975,-28.125,11.875,14.375,94.50980392156863,10,0.0,0.0,0.0,0.0,0.0,0.0,198,1,1
-4.9375,-4.5625,32.875,0.132,-0.068,1.047,-10.9375,-6.3125,6.0,94.50980392156863,10,0.0,0.0,0.0,0.0,0.0,0.0,199,1,1
-7.0625,-3.1875,33.8125,0.097,-0.052000000000000005,0.986,8.4375,0.375,-3.875,93.72549019607843,10,0.0,0.0,0.0,0.0,0.0,0.0,201,1,1
-7.4375,-2.125,33.9375,0.128,-0.019,0.933,6.5625,-1.6875,-1.9375,94.11764705882352,10,0.0,0.0,0.0,0.0,0.0,0.0,202,1,1
-7.5625,-2.4375,33.8125,0.14200000000000002,-0.029,0.9540000000000001,-8.625,-2.4375,1.8125,93.72549019607843,10,0.0,0.0,0.0,0.0,0.0,0.0,203,1,1
-8.125,-3.4375,33.8125,0.15,-0.05,0.996,0.625,-2.875,-0.75,94.90196078431373,10,0.0,0.0,0.0,0.0,0.0,0.0,205,1,1
-8.375,-3.0625,33.8125,0.15,-0.054,0.973,6.375,-1.9375,0.0,94.50980392156863,10,0.0,0.0,0.0,0.0,0.0,0.0,206,1,1
-8.4375,-2.4375,33.625,0.152,-0.039,0.979,4.5625,3.25,4.0,94.90196078431373,10,0.0,0.0,0.0,0.0,0.0,0.0,208,1,1
-8.1875,-1.875,33.375,0.152,-0.041,0.983,9.875,1.125,2.5625,94.50980392156863,10,0.0,0.0,0.0,0.0,0.0,0.0,209,1,1
-8.3125,-1.1875,33.1875,0.164,-0.004,0.935,3.9375,-1.125,0.4375,94.50980392156863,10,0.0,0.0,0.0,0.0,0.0,0.0,210,1,1
-8.375,-1.1875,33.1875,0.161,-0.016,0.961,-4.6875,1.6875,0.25,94.11764705882352,10,0.0,0.0,0.0,0.0,0.0,0.0,211,1,1
-8.5,-1.375,33.25,0.146,-0.029,0.981,-1.8125,0.75,0.4375,94.90196078431373,10,0.0,0.0,0.0,0.0,0.0,0.0,212,1,1
-8.5,-1.375,33.0,0.151,-0.026000000000000002,0.975,2.6875,-1.5625,1.875,94.50980392156863,10,0.0,0.0,0.0,0.0,0.0,0.0,213,1,1
-8.5625,-1.25,32.9375,0.171,-0.011,0.9530000000000001,-1.5625,-1.3125,0.0625,92.15686274509804,10,0.0,0.0,0.0,0.0,0.0,0.0,214,1,1
-8.9375,-1.0625,33.0,0.17,-0.007,0.975,4.0625,-3.0625,-1.75,94.11764705882352,10,0.0,0.0,0.0,0.0,0.0,0.0,215,1,1
-9.1875,-0.75,33.375,0.156,-0.015,0.972,2.25,-2.0625,-3.5625,94.11764705882352,10,0.0,0.0,0.0,0.0,0.0,0.0,216,1,1
-9.4375,-0.1875,33.375,0.169,-0.004,0.979,7.625,-2.0,-2.875,93.72549019607843,10,0.0,0.0,0.0,0.0,0.0,0.0,217,1,1
-9.4375,0.375,33.625,0.167,0.014,0.93,0.9375,5.6875,-2.0,94.90196078431373,10,0.0,0.0,0.0,0.0,0.0,0.0,218,1,1
-9.25,0.1875,33.75,0.149,0.0,0.972,-1.0625,-3.3125,0.5,94.90196078431373,10,0.0,0.0,0.0,0.0,0.0,0.0,219,1,1
-9.4375,0.0,33.5625,0.168,0.003,0.987,-3.25,1.875,3.4375,94.90196078431373,10,0.0,0.0,0.0,0.0,0.0,0.0,220,1,1
-9.25,0.375,33.5,0.146,0.013000000000000001,0.99,5.5,1.4375,-0.5625,94.90196078431373,10,0.0,0.0,0.0,0.0,0.0,0.0,222,1,1
-5.5625,3.4375,31.6875,0.073,0.042,1.008,27.125,25.9375,14.0,94.50980392156863,10,0.0,0.0,0.0,0.0,0.0,0.0,224,1,1
-4.3125,6.875,30.125,0.064,0.14100000000000001,0.9420000000000001,33.1875,17.8125,13.6875,94.90196078431373,10,0.0,0.0,0.0,0.0,0.0,0.0,225,1,1
-4.1875,8.8125,28.25,0.138,0.117,0.9530000000000001,10.75,-5.8125,10.375,94.90196078431373,10,0.0,0.0,0.0,0.0,0.0,0.0,226,1,1
-4.6875,9.8125,28.1875,0.133,0.17400000000000002,0.973,7.0625,-0.0625,-2.6875,94.50980392156863,10,0.0,0.0,0.0,0.0,0.0,0.0,227,1,1
-5.6875,10.0625,29.5625,0.149,0.15,0.91,-4.25,-19.625,-23.1875,94.50980392156863,10,0.0,0.0,0.0,0.0,0.0,0.0,228,1,1
-5.4375,10.0,31.5625,0.084,0.161,0.9520000000000001,-4.1875,-5.1875,-15.875,92.54901960784314,10,0.0,0.0,0.0,0.0,0.0,0.0,229,1,1
-4.8125,9.75,32.5625,0.025,0.177,0.96,-3.4375,15.4375,4.25,94.11764705882352,10,0.0,0.0,0.0,0.0,0.0,0.0,230,1,1
-4.8125,9.6875,30.4375,0.08600000000000001,0.161,0.9570000000000001,-1.0625,1.3125,5.3125,94.90196078431373,10,0.0,0.0,0.0,0.0,0.0,0.0,232,1,1
-5.6875,9.75,29.75,0.136,0.222,0.896,-2.75,-20.6875,10.1875,94.50980392156863,10,0.0,0.0,0.0,0.0,0.0,0.0,233,1,1
-6.625,8.875,29.5,0.133,0.106,0.9450000000000001,1.875,-24.5,-6.0625,94.90196078431373,10,0.0,0.0,0.0,0.0,0.0,0.0,234,1,1
-7.3125,8.75,30.0625,0.08700000000000001,0.138,0.9420000000000001,-7.4375,-6.3125,-5.3125,94.90196078431373,10,0.0,0.0,0.0,0.0,0.0,0.0,235,1,1
-8.125,7.75,30.1875,0.137,0.151,0.966,-10.0625,-14.5625,4.5625,94.90196078431373,10,0.0,0.0,0.0,0.0,0.0,0.0,236,1,1
-8.375,6.875,29.875,0.161,0.124,1.006,-2.625,-3.5,4.25,94.50980392156863,10,0.0,0.0,0.0,0.0,0.0,0.0,237,1,1
-8.9375,7.25,29.75,0.153,0.129,0.964,3.125,-4.625,-4.0,94.50980392156863,10,0.0,0.0,0.0,0.0,0.0,0.0,238,1,1
-8.875,7.375,29.9375,0.16,0.121,0.9440000000000001,-1.9375,-3.5,-1.375,94.90196078431373,10,0.0,0.0,0.0,0.0,0.0,0.0,239,1,1
-9.25,7.5,30.125,0.182,0.131,0.916,0.6875,-8.75,-1.9375,94.50980392156863,10,0.0,0.0,0.0,0.0,0.0,0.0,240,1,1
-11.3125,7.1875,30.8125,0.20800000000000002,0.12,0.9430000000000001,-0.4375,-28.1875,-6.3125,94.90196078431373,10,0.0,0.0,0.0,0.0,0.0,0.0,241,1,1
-15.1875,7.375,32.375,0.26,0.132,0.937,-0.1875,-56.625,-18.75,94.90196078431373,10,0.0,0.0,0.0,0.0,0.0,0.0,242,1,1
-21.375,7.75,34.75,0.369,0.105,0.874,-13.1875,-60.25,-16.3125,92.54901960784314,10,0.0,0.0,0.0,0.0,0.0,0.0,243,1,1
-24.625,7.3125,36.5,0.39,0.097,0.9450000000000001,2.875,-34.3125,-8.6875,94.11764705882352,10,0.0,0.0,0.0,0.0,0.0,0.0,244,1,1
-27.8125,8.3125,37.5,0.455,0.115,0.915,11.6875,-37.0,-0.6875,93.72549019607843,10,0.0,0.0,0.0,0.0,0.0,0.0,245,1,1
-32.875,12.5,38.375,0.521,0.20700000000000002,0.787,39.5625,-58.8125,-16.875,94.11764705882352,10,0.0,0.0,0.0,0.0,0.0,0.0,246,1,1
-35.9375,17.0,38.875,0.601,0.251,0.727,19.5625,-11.5,-10.375,94.50980392156863,10,0.0,0.0,0.0,0.0,0.0,0.0,247,1,1
-37.375,21.4375,39.1875,0.604,0.256,0.6880000000000001,45.8125,-29.25,-16.25,94.90196078431373,10,0.0,0.0,0.0,0.0,0.0,0.0,248,1,1
-40.0625,27.875,40.375,0.597,0.37,0.625,7.75,-17.3125,-1.5,94.90196078431373,10,0.0,0.0,0.0,0.0,0.0,0.0,250,1,1
-39.625,27.3125,40.375,0.631,0.354,0.653,-12.125,25.75,2.8125,94.90196078431373,10,0.0,0.0,0.0,0.0,0.0,0.0,251,1,1
-30.5,19.9375,38.625,0.461,0.306,0.8260000000000001,-70.625,169.875,5.75,94.50980392156863,10,0.0,0.0,0.0,0.0,0.0,0.0,252,1,1
-18.375,13.75,37.25,0.295,0.158,0.738,-4.0625,107.375,13.1875,94.50980392156863,10,0.0,0.0,0.0,0.0,0.0,0.0,253,1,1
-6.125,8.9375,34.8125,0.03,0.14,0.879,-60.0625,104.75,21.5,94.50980392156863,10,0.0,0.0,0.0,0.0,0.0,0.0,254,1,1
4.625,1.6875,31.1875,-0.115,-0.004,0.991,-77.9375,66.875,29.6875,94.90196078431373,10,0.0,0.0,0.0,0.0,0.0,0.0,255,1,1
7.9375,-4.25,28.1875,-0.13,-0.10200000000000001,1.071,-50.6875,23.5,20.875,94.90196078431373,10,0.0,0.0,0.0,0.0,0.0,0.0,0,1,1
10.5,-7.875,26.0625,-0.10300000000000001,-0.14400000000000002,1.084,-25.4375,31.5,10.0625,92.54901960784314,10,0.0,0.0,0.0,0.0,0.0,0.0,1,1,1
10.75,-8.0,26.6875,-0.155,-0.11900000000000001,0.9560000000000001,8.9375,11.0,-7.5625,93.72549019607843,10,0.0,0.0,0.0,0.0,0.0,0.0,2,1,1
11.25,-8.0625,27.75,-0.17300000000000001,-0.134,0.902,1.4375,-6.8125,-16.5625,94.11764705882352,10,0.0,0.0,0.0,0.0,0.0,0.0,3,1,1
10.5625,-9.6875,29.375,-0.20800000000000002,-0.159,0.881,-29.0,-11.5,-15.75,94.11764705882352,10,0.0,0.0,0.0,0.0,0.0,0.0,4,1,1
10.5625,-14.4375,29.8125,-0.225,-0.256,1.0050000000000001,-47.625,-2.5625,-1.25,94.50980392156863,10,0.0,0.0,0.0,0.0,0.0,0.0,5,1,1
10.3125,-17.8125,29.0,-0.157,-0.298,1.037,-29.5,-2.3125,-0.4375,94.50980392156863,10,0.0,0.0,0.0,0.0,0.0,0.0,6,1,1
10.125,-19.0,29.5,-0.14200000000000002,-0.316,0.966,-1.5,-4.5,-13.1875,94.90196078431373,10,0.0,0.0,0.0,0.0,0.0,0.0,7,1,1
8.875,-18.75,30.875,-0.149,-0.34500000000000003,0.9560000000000001,8.625,-12.25,-16.5,94.90196078431373,10,0.0,0.0,0.0,0.0,0.0,0.0,8,1,1
6.1875,-17.3125,32.5625,-0.123,-0.29,1.0110000000000001,22.25,-31.625,-23.125,94.50980392156863,10,0.0,0.0,0.0,0.0,0.0,0.0,9,1,1
3.375,-14.375,34.0,-0.068,-0.225,0.992,34.4375,-23.125,-11.625,94.90196078431373,10,0.0,0.0,0.0,0.0,0.0,0.0,10,1,1
0.75,-11.1875,34.625,0.008,-0.224,0.912,23.1875,-10.125,2.875,94.90196078431373,10,0.0,0.0,0.0,0.0,0.0,0.0,11,1,1
2.5625,-10.0,34.9375,-0.043000000000000003,-0.2,0.9460000000000001,15.4375,9.125,-5.5,94.90196078431373,10,0.0,0.0,0.0,0.0,0.0,0.0,12,1,1
4.4375,-9.1875,36.1875,-0.067,-0.132,0.9510000000000001,6.875,30.8125,-10.375,94.90196078431373,10,0.0,0.0,0.0,0.0,0.0,0.0,13,1,1
3.25,-8.375,37.4375,-0.057,-0.147,0.986,21.4375,-44.8125,-19.375,94.50980392156863,10,0.0,0.0,0.0,0.0,0.0,0.0,14,1,1
0.8125,-6.0625,38.625,0.0,-0.131,0.962,23.4375,9.4375,-10.5,94.50980392156863,10,0.0,0.0,0.0,0.0,0.0,0.0,15,1,1
1.5,-3.1875,40.25,-0.034,-0.054,1.029,35.625,-37.375,-21.3125,94.11764705882352,10,0.0,0.0,0.0,0.0,0.0,0.0,16,1,1
-1.4375,1.3125,42.0,-0.054,0.041,1.04,47.4375,-13.75,-4.625,94.11764705882352,10,0.0,0.0,0.0,0.0,0.0,0.0,17,1,1
-2.4375,6.6875,41.375,0.043000000000000003,0.10300000000000001,0.9570000000000001,61.4375,-9.25,4.375,93.72549019607843,10,0.0,0.0,0.0,0.0,0.0,0.0,18,1,1
-2.875,11.0625,41.9375,0.016,0.18,0.905,-29.8125,-1.5,-15.25,94.90196078431373,10,0.0,0.0,0.0,0.0,0.0,0.0,20,1,1
-2.75,9.8125,41.8125,-0.007,0.16,0.997,6.375,10.3125,16.8125,94.90196078431373,10,0.0,0.0,0.0,0.0,0.0,0.0,21,1,1
-2.5,10.6875,39.1875,-0.014,0.138,1.042,16.25,8.625,32.1875,94.90196078431373,10,0.0,0.0,0.0,0.0,0.0,0.0,22,1,1
-0.3125,13.6875,35.125,0.048,0.163,0.93,26.0625,20.5,28.3125,94.50980392156863,10,0.0,0.0,0.0,0.0,0.0,0.0,23,1,1
0.5,16.0,33.6875,0.035,0.28700000000000003,0.868,15.25,5.9375,2.5,94.50980392156863,10,0.0,0.0,0.0,0.0,0.0,0.0,24,1,1
1.125,16.625,33.375,-0.016,0.28200000000000003,0.9590000000000001,12.875,0.5,-2.8125,94.90196078431373,10,0.0,0.0,0.0,0.0,0.0,0.0,25,1,1
1.3125,17.4375,33.875,-0.001,0.28300000000000003,0.997,10.1875,3.8125,-12.875,94.90196078431373,10,0.0,0.0,0.0,0.0,0.0,0.0,26,1,1
2.75,19.9375,36.25,-0.07,0.308,0.962,32.6875,12.0,-23.25,94.50980392156863,10,0.0,0.0,0.0,0.0,0.0,0.0,27,1,1
3.875,23.1875,38.5,-0.145,0.388,0.86,20.5,10.75,-13.375,94.90196078431373,10,0.0,0.0,0.0,0.0,0.0,0.0,28,1,1
5.375,24.75,38.125,-0.092,0.40900000000000003,0.722,4.6875,7.875,1.75,92.94117647058823,10,0.0,0.0,0.0,0.0,0.0,0.0,29,1,1
5.75,24.0625,37.0,-0.01,0.394,0.712,-23.1875,-5.375,2.6875,94.11764705882352,10,0.0,0.0,0.0,0.0,0.0,0.0,30,1,1
9.0,18.0,36.3125,-0.163,0.245,0.914,-72.375,45.5,-10.5625,94.11764705882352,10,0.0,0.0,0.0,0.0,0.0,0.0,31,1,1
9.375,8.0625,35.375,-0.223,0.123,1.079,-1.5625,-16.75,-2.8125,94.90196078431373,10,0.0,0.0,0.0,0.0,0.0,0.0,33,1,1
10.5625,6.875,34.5,-0.185,0.123,0.898,-4.0,-2.1875,1.125,94.50980392156863,10,0.0,0.0,0.0,0.0,0.0,0.0,35,1,1
9.9375,3.0625,32.75,-0.177,0.048,1.0130000000000001,-18.6875,-1.5,11.3125,94.90196078431373,10,0.0,0.0,0.0,0.0,0.0,0.0,37,1,1
8.375,1.9375,32.0625,-0.117,0.017,0.999,3.9375,-6.8125,-7.4375,94.50980392156863,10,0.0,0.0,0.0,0.0,0.0,0.0,39,1,1
8.1875,2.5625,32.875,-0.218,0.043000000000000003,1.036,13.6875,-1.25,0.375,94.90196078431373,10,0.0,0.0,0.0,0.0,0.0,0.0,40,1,1
7.375,5.3125,32.6875,-0.14200000000000002,0.055,0.908,32.5625,-19.625,3.9375,94.50980392156863,10,0.0,0.0,0.0,0.0,0.0,0.0,41,1,1
6.8125,4.75,32.375,-0.138,0.07100000000000001,0.96,-14.3125,-10.875,0.9375,94.90196078431373,10,0.0,0.0,0.0,0.0,0.0,0.0,43,1,1
6.125,3.25,31.875,-0.116,0.052000000000000005,0.997,-11.25,-9.125,5.6875,92.94117647058823,10,0.0,0.0,0.0,0.0,0.0,0.0,44,1,1
5.8125,2.0625,31.3125,-0.093,0.032,0.987,-12.75,0.0,3.25,94.11764705882352,10,0.0,0.0,0.0,0.0,0.0,0.0,45,1,1
5.4375,0.875,31.25,-0.088,0.022,0.984,-10.875,-4.8125,1.5625,94.11764705882352,10,0.0,0.0,0.0,0.0,0.0,0.0,46,1,1
3.6875,-0.25,31.6875,-0.098,0.015,0.9460000000000001,-2.375,-9.25,-7.4375,94.90196078431373,10,0.0,0.0,0.0,0.0,0.0,0.0,48,1,1
3.4375,-1.3125,31.8125,-0.044,-0.058,0.9550000000000001,-17.3125,1.8125,-0.4375,94.90196078431373,10,0.0,0.0,0.0,0.0,0.0,0.0,49,1,1
3.1875,-2.3125,32.125,-0.08,-0.003,1.0130000000000001,0.5625,-13.375,-0.625,94.90196078431373,10,0.0,0.0,0.0,0.0,0.0,0.0,50,1,1
2.25,-1.875,33.1875,-0.046,-0.05,1.0050000000000001,17.375,-4.0625,-14.375,94.90196078431373,10,0.0,0.0,0.0,0.0,0.0,0.0,52,1,1
2.0625,-0.4375,34.375,-0.078,-0.018000000000000002,0.977,12.3125,-4.1875,-6.125,94.90196078431373,10,0.0,0.0,0.0,0.0,0.0,0.0,53,1,1
1.0625,1.0625,35.0625,-0.027,0.023,0.967,17.625,-18.3125,-6.8125,94.90196078431373,10,0.0,0.0,0.0,0.0,0.0,0.0,54,1,1
0.5,1.75,35.8125,0.015,0.014,0.986,-1.0,4.125,-9.0,94.90196078431373,10,0.0,0.0,0.0,0.0,0.0,0.0,55,1,1
0.1875,1.75,37.0625,-0.031,0.054,0.965,1.9375,2.4375,-11.625,94.90196078431373,10,0.0,0.0,0.0,0.0,0.0,0.0,56,1,1
-0.0625,1.4375,38.25,-0.031,0.01,0.927,-16.0625,-4.125,-10.375,94.90196078431373,10,0.0,0.0,0.0,0.0,0.0,0.0,57,1,1
0.0,-0.125,37.9375,-0.067,-0.16,1.19,11.9375,-8.6875,16.5625,93.72549019607843,10,0.0,0.0,0.0,0.0,0.0,0.0,58,1,1
2.6875,0.625,37.625,-0.10300000000000001,0.047,0.926,-16.4375,27.125,-0.875,93.72549019607843,10,0.0,0.0,0.0,0.0,0.0,0.0,59,1,1
1.0,-4.25,35.8125,-0.026000000000000002,-0.07,0.98,-57.25,-28.75,9.875,94.11764705882352,10,0.0,0.0,0.0,0.0,0.0,0.0,61,1,1
-0.0625,-6.8125,34.8125,0.006,-0.124,1.0210000000000001,-32.125,6.5625,29.8125,94.50980392156863,10,0.0,0.0,0.0,0.0,0.0,0.0,62,1,1
0.9375,-7.5,33.75,-0.03,-0.099,1.024,26.1875,7.6875,-11.6875,94.90196078431373,10,0.0,0.0,0.0,0.0,0.0,0.0,63,1,1
1.1875,-4.625,34.875,-0.064,-0.117,1.039,16.3125,0.5625,2.0,94.90196078431373,10,0.0,0.0,0.0,0.0,0.0,0.0,64,1,1
3.0,-11.25,31.5,-0.096,-0.245,0.973,-17.375,4.0625,11.1875,94.90196078431373,10,0.0,0.0,0.0,0.0,0.0,0.0,66,1,1
1.4375,-7.125,31.375,0.08600000000000001,-0.077,1.0090000000000001,24.125,-9.25,-7.9375,94.90196078431373,10,0.0,0.0,0.0,0.0,0.0,0.0,68,1,1
1.125,-6.25,32.125,-0.011,-0.031,0.936,2.6875,-11.125,-15.5,94.50980392156863,10,0.0,0.0,0.0,0.0,0.0,0.0,69,1,1
-0.625,-6.1875,31.25,-0.023,-0.161,1.024,15.9375,-13.8125,-1.875,94.50980392156863,10,0.0,0.0,0.0,0.0,0.0,0.0,71,1,1
-0.625,-3.0,27.625,0.014,-0.11,1.035,25.3125,-9.3125,22.1875,93.72549019607843,10,0.0,0.0,0.0,0.0,0.0,0.0,73,1,1
-1.5625,4.6875,19.5,0.056,0.136,0.937,27.3125,-12.0,47.125,94.50980392156863,10,0.0,0.0,0.0,0.0,0.0,0.0,75,1,1
-9.25,13.6875,15.6875,0.182,0.28,0.918,69.375,-2.3125,2.3125,94.90196078431373,10,0.0,0.0,0.0,0.0,0.0,0.0,77,1,1
-8.0,15.625,17.0625,0.138,0.233,0.779,-29.8125,-12.125,-12.9375,94.50980392156863,10,0.0,0.0,0.0,0.0,0.0,0.0,79,1,1
-13.8125,18.4375,23.125,0.216,0.315,0.875,15.3125,-39.75,-11.1875,94.90196078431373,10,0.0,0.0,0.0,0.0,0.0,0.0,81,1,1
-16.375,18.3125,23.625,0.322,0.292,0.906,-10.875,-17.375,10.4375,94.90196078431373,10,0.0,0.0,0.0,0.0,0.0,0.0,82,1,1
-9.6875,18.375,22.375,0.15,0.335,0.8220000000000001,-9.625,60.4375,0.0625,94.50980392156863,10,0.0,0.0,0.0,0.0,0.0,0.0,84,1,1
-8.375,14.0,18.125,0.155,0.26,0.963,-21.625,-5.0625,10.5,94.11764705882352,10,0.0,0.0,0.0,0.0,0.0,0.0,86,1,1
-7.25,12.4375,17.6875,0.12,0.184,0.9430000000000001,6.9375,23.75,-0.625,94.90196078431373,10,0.0,0.0,0.0,0.0,0.0,0.0,88,1,1
-5.0,14.4375,18.25,0.065,0.194,0.888,25.5,11.375,-19.1875,94.90196078431373,10,0.0,0.0,0.0,0.0,0.0,0.0,90,1,1
-4.0,15.75,19.875,0.094,0.364,0.837,-35.5,14.6875,17.0625,94.90196078431373,10,0.0,0.0,0.0,0.0,0.0,0.0,92,1,1
-3.8125,9.4375,22.625,0.029,0.099,1.0110000000000001,6.1875,4.9375,-23.9375,94.50980392156863,10,0.0,0.0,0.0,0.0,0.0,0.0,94,1,1
-4.3125,9.75,23.9375,0.053,0.10400000000000001,0.9550000000000001,-9.25,-13.3125,-2.3125,94.90196078431373,10,0.0,0.0,0.0,0.0,0.0,0.0,95,1,1
-4.375,5.75,26.1875,0.036000000000000004,0.244,0.9540000000000001,-53.25,-1.875,-41.375,94.50980392156863,10,0.0,0.0,0.0,0.0,0.0,0.0,97,1,1
-3.9375,5.625,28.875,0.077,-0.064,0.999,2.625,-10.6875,9.625,94.11764705882352,10,0.0,0.0,0.0,0.0,0.0,0.0,99,1,1
-0.8125,11.3125,30.1875,0.019,0.115,0.979,35.6875,32.8125,-15.0,94.50980392156863,10,0.0,0.0,0.0,0.0,0.0,0.0,101,1,1
-0.375,15.4375,28.0,0.083,0.307,1.004,18.8125,-8.8125,-7.625,94.90196078431373,10,0.0,0.0,0.0,0.0,0.0,0.0,103,1,1
1.5625,17.1875,30.875,-0.002,0.323,0.849,-13.5,9.75,-9.75,94.50980392156863,10,0.0,0.0,0.0,0.0,0.0,0.0,105,1,1
3.25,13.5,31.0625,-0.037,0.225,0.967,-5.75,2.1875,-2.375,94.50980392156863,10,0.0,0.0,0.0,0.0,0.0,0.0,107,1,1
4.0,12.6875,31.25,-0.101,0.302,0.862,-19.0625,13.0625,-6.3125,94.50980392156863,10,0.0,0.0,0.0,0.0,0.0,0.0,108,1,1
3.6875,8.25,31.625,-0.08700000000000001,0.083,1.091,12.75,-22.375,6.4375,93.72549019607843,10,0.0,0.0,0.0,0.0,0.0,0.0,110,1,1
-2.9375,13.6875,28.625,0.021,0.218,0.987,-0.625,-20.0,15.625,93.72549019607843,10,0.0,0.0,0.0,0.0,0.0,0.0,112,1,1
-6.1875,16.25,23.4375,0.248,0.164,0.855,-9.625,35.9375,17.375,94.11764705882352,10,0.0,0.0,0.0,0.0,0.0,0.0,114,1,1
-4.875,15.5,22.0,0.134,0.315,0.873,-12.625,15.6875,7.9375,94.50980392156863,10,0.0,0.0,0.0,0.0,0.0,0.0,115,1,1
-1.9375,12.5,24.5,0.088,0.23500000000000001,0.98,-11.4375,24.75,-26.9375,94.11764705882352,10,0.0,0.0,0.0,0.0,0.0,0.0,117,1,1
3.6875,13.8125,29.5625,-0.108,0.212,0.917,-2.9375,36.9375,-14.3125,94.11764705882352,10,0.0,0.0,0.0,0.0,0.0,0.0,119,1,1
7.1875,13.5625,29.625,-0.177,0.215,0.8290000000000001,-3.6875,4.5,-2.8125,94.11764705882352,10,0.0,0.0,0.0,0.0,0.0,0.0,120,1,1
7.0625,12.0,28.625,-0.148,0.201,0.917,-24.5,3.375,11.625,94.50980392156863,10,0.0,0.0,0.0,0.0,0.0,0.0,121,1,1
4.5,10.1875,26.25,-0.061,0.181,0.997,2.6875,-6.875,3.6875,94.11764705882352,10,0.0,0.0,0.0,0.0,0.0,0.0,123,1,1
5.1875,13.125,27.0625,-0.093,0.23900000000000002,0.974,45.0,-14.8125,-8.625,93.33333333333333,10,0.0,0.0,0.0,0.0,0.0,0.0,125,1,1
4.9375,19.0,29.3125,-0.117,0.304,0.905,18.125,14.0,-4.125,93.72549019607843,10,0.0,0.0,0.0,0.0,0.0,0.0,127,1,1
11.3125,26.5,27.4375,-0.081,0.41100000000000003,0.794,71.75,4.0,-13.0,94.50980392156863,10,0.0,0.0,0.0,0.0,0.0,0.0,129,1,1
11.5,30.0625,33.1875,-0.274,0.445,0.722,-37.0625,-9.6875,-0.0625,94.90196078431373,10,0.0,0.0,0.0,0.0,0.0,0.0,131,1,1
5.25,18.875,27.75,-0.043000000000000003,0.308,0.931,-72.1875,-29.1875,39.125,94.90196078431373,10,0.0,0.0,0.0,0.0,0.0,0.0,133,1,1
1.5625,11.125,24.6875,0.01,0.20600000000000002,1.0210000000000001,-71.9375,-4.3125,26.0625,94.50980392156863,10,0.0,0.0,0.0,0.0,0.0,0.0,134,1,1
-2.375,6.4375,23.8125,0.058,0.107,1.108,-23.5625,-58.375,0.125,94.50980392156863,10,0.0,0.0,0.0,0.0,0.0,0.0,135,1,1
-3.0,7.5625,23.6875,0.074,0.149,0.907,19.0625,1.25,-6.0,94.11764705882352,10,0.0,0.0,0.0,0.0,0.0,0.0,137,1,1
-3.875,7.0,24.75,0.008,0.097,0.856,-12.0,-27.0625,-1.0,93.72549019607843,10,0.0,0.0,0.0,0.0,0.0,0.0,139,1,1
-8.6875,1.6875,21.1875,0.215,0.045,1.051,-8.25,-12.5625,30.75,94.50980392156863,10,0.0,0.0,0.0,0.0,0.0,0.0,141,1,1
-7.0,2.6875,21.0625,0.177,0.064,1.039,20.75,20.3125,-25.5,94.11764705882352,10,0.0,0.0,0.0,0.0,0.0,0.0,143,1,1
0.5,13.4375,30.6875,-0.033,0.193,0.894,72.0,22.625,-65.9375,94.50980392156863,10,0.0,0.0,0.0,0.0,0.0,0.0,145,1,1
9.5,24.0,39.75,-0.202,0.378,0.719,31.0,17.3125,-19.8125,94.50980392156863,10,0.0,0.0,0.0,0.0,0.0,0.0,147,1,1
10.5625,23.9375,40.8125,-0.256,0.319,0.8240000000000001,-11.0625,-1.5625,-5.625,94.11764705882352,10,0.0,0.0,0.0,0.0,0.0,0.0,148,1,1
10.1875,22.9375,36.9375,-0.202,0.368,0.878,5.75,-0.0625,22.625,94.50980392156863,10,0.0,0.0,0.0,0.0,0.0,0.0,150,1,1
11.5625,23.6875,31.4375,-0.171,0.353,0.863,-1.25,15.8125,13.5625,93.72549019607843,10,0.0,0.0,0.0,0.0,0.0,0.0,152,1,1
12.5,24.25,30.6875,-0.194,0.37,0.8230000000000001,3.3125,15.8125,1.25,93.33333333333333,10,0.0,0.0,0.0,0.0,0.0,0.0,153,1,1
15.25,24.0625,31.4375,-0.275,0.375,0.8220000000000001,-6.0,5.25,-10.5,94.90196078431373,10,0.0,0.0,0.0,0.0,0.0,0.0,155,1,1
16.75,22.5625,32.1875,-0.296,0.34,0.851,-2.5,3.1875,1.0,94.50980392156863,10,0.0,0.0,0.0,0.0,0.0,0.0,157,1,1
14.625,20.75,32.5,-0.273,0.329,0.887,-20.375,-8.0,0.75,94.50980392156863,10,0.0,0.0,0.0,0.0,0.0,0.0,159,1,1
13.625,19.3125,32.1875,-0.28200000000000003,0.311,0.916,-9.875,-11.6875,5.5625,94.50980392156863,10,0.0,0.0,0.0,0.0,0.0,0.0,160,1,1
12.625,19.0625,31.4375,-0.23600000000000002,0.305,0.912,2.3125,-12.4375,8.75,94.50980392156863,10,0.0,0.0,0.0,0.0,0.0,0.0,161,1,1
8.9375,18.5625,30.25,-0.149,0.306,0.916,-11.625,-27.0,1.9375,94.90196078431373,10,0.0,0.0,0.0,0.0,0.0,0.0,163,1,1
8.3125,15.6875,30.4375,-0.12,0.28,0.862,-22.4375,0.0625,-8.9375,93.72549019607843,10,0.0,0.0,0.0,0.0,0.0,0.0,165,1,1
6.3125,8.5,33.125,-0.153,0.131,0.985,-30.875,-33.5,-11.0,93.72549019607843,10,0.0,0.0,0.0,0.0,0.0,0.0,167,1,1
2.875,6.75,34.875,-0.074,0.122,0.964,2.375,-9.75,-3.625,94.50980392156863,10,0.0,0.0,0.0,0.0,0.0,0.0,169,1,1
2.5625,6.6875,35.25,-0.059000000000000004,0.11800000000000001,0.965,-8.25,4.4375,0.0625,94.50980392156863,10,0.0,0.0,0.0,0.0,0.0,0.0,171,1,1
2.4375,7.75,35.5625,-0.113,0.115,1.03,13.375,17.3125,14.625,94.50980392156863,10,0.0,0.0,0.0,0.0,0.0,0.0,173,1,1
4.0625,10.0,33.375,-0.096,0.164,0.934,21.8125,19.375,23.6875,94.50980392156863,10,0.0,0.0,0.0,0.0,0.0,0.0,174,1,1
4.625,11.75,30.75,-0.042,0.17300000000000001,0.914,13.3125,8.9375,22.5625,94.50980392156863,10,0.0,0.0,0.0,0.0,0.0,0.0,175,1,1
4.0625,12.375,29.1875,-0.045,0.243,0.9420000000000001,-4.5,-7.0625,9.125,94.11764705882352,10,0.0,0.0,0.0,0.0,0.0,0.0,176,1,1
3.8125,11.625,28.9375,-0.083,0.197,0.93,-1.625,-1.6875,-0.5625,93.33333333333333,10,0.0,0.0,0.0,0.0,0.0,0.0,178,1,1
3.625,9.125,27.6875,-0.068,0.15,0.924,-17.9375,-9.5625,9.625,93.72549019607843,10,0.0,0.0,0.0,0.0,0.0,0.0,180,1,1
-3.125,2.4375,27.5,-0.006,0.053,0.97,-31.3125,-38.1875,7.1875,94.50980392156863,10,0.0,0.0,0.0,0.0,0.0,0.0,182,1,1
-8.25,-1.5,24.125,0.193,-0.014,1.0030000000000001,-4.0625,-16.8125,17.8125,94.50980392156863,10,0.0,0.0,0.0,0.0,0.0,0.0,184,1,1
-8.3125,-0.9375,24.1875,0.18,-0.022,1.07,19.9375,21.875,-8.625,94.50980392156863,10,0.0,0.0,0.0,0.0,0.0,0.0,186,1,1
-5.875,3.0,26.375,0.11900000000000001,0.05,1.064,51.0,32.8125,-30.625,94.50980392156863,10,0.0,0.0,0.0,0.0,0.0,0.0,187,1,1
-4.5625,10.3125,29.5625,0.14300000000000002,0.148,0.935,83.75,1.9375,-46.6875,94.50980392156863,10,0.0,0.0,0.0,0.0,0.0,0.0,188,1,1
0.25,21.5,39.5,-0.083,0.343,0.845,13.3125,24.125,-38.8125,94.50980392156863,10,0.0,0.0,0.0,0.0,0.0,0.0,190,1,1
2.875,21.8125,41.75,-0.053,0.329,0.908,5.0,-13.875,3.8125,93.72549019607843,10,0.0,0.0,0.0,0.0,0.0,0.0,192,1,1
-1.9375,35.3125,42.4375,0.058,0.488,0.786,144.8125,-68.6875,-14.6875,94.50980392156863,10,0.0,0.0,0.0,0.0,0.0,0.0,194,1,1
-3.375,54.375,45.5,0.046,0.757,0.504,61.875,-14.3125,-11.8125,94.50980392156863,10,0.0,0.0,0.0,0.0,0.0,0.0,196,1,1
-3.0625,60.5,45.5625,0.06,0.8160000000000001,0.434,12.9375,-8.625,-0.875,94.50980392156863,10,0.0,0.0,0.0,0.0,0.0,0.0,198,1,1
-3.0625,63.625,45.375,0.01,0.845,0.432,24.375,1.125,-7.0625,94.50980392156863,10,0.0,0.0,0.0,0.0,0.0,0.0,200,1,1
-3.6875,65.6875,44.0625,0.065,0.861,0.358,-4.9375,-0.375,4.8125,94.50980392156863,10,0.0,0.0,0.0,0.0,0.0,0.0,202,1,1
-3.9375,63.9375,43.0,0.062,0.8310000000000001,0.419,-8.0,8.25,-2.125,94.50980392156863,10,0.0,0.0,0.0,0.0,0.0,0.0,204,1,1
-2.1875,56.625,38.3125,-0.009000000000000001,0.751,0.458,-78.1875,45.875,15.5625,93.33333333333333,10,0.0,0.0,0.0,0.0,0.0,0.0,206,1,1
-0.4375,33.5625,29.4375,0.012,0.464,0.726,-162.3125,41.4375,35.5625,93.72549019607843,10,0.0,0.0,0.0,0.0,0.0,0.0,208,1,1
3.1875,2.875,24.875,-0.043000000000000003,-0.061,1.167,-102.5,4.8125,4.1875,94.90196078431373,10,0.0,0.0,0.0,0.0,0.0,0.0,210,1,1
3.5,-0.625,26.25,-0.06,-0.015,0.961,1.0625,10.3125,2.0625,94.50980392156863,10,0.0,0.0,0.0,0.0,0.0,0.0,212,1,1
3.8125,-1.3125,27.375,-0.09,-0.057,1.0090000000000001,-8.1875,4.0,-2.0,94.50980392156863,10,0.0,0.0,0.0,0.0,0.0,0.0,214,1,1
4.5,-1.25,27.75,-0.089,-0.021,0.96,0.875,3.0625,2.5,94.11764705882352,10,0.0,0.0,0.0,0.0,0.0,0.0,216,1,1
4.375,-1.3125,28.0625,-0.078,-0.043000000000000003,0.973,-2.75,-3.0625,0.4375,94.50980392156863,10,0.0,0.0,0.0,0.0,0.0,0.0,217,1,1
4.375,-1.75,28.5625,-0.078,-0.037,0.991,-0.5,2.0625,3.3125,94.11764705882352,10,0.0,0.0,0.0,0.0,0.0,0.0,219,1,1
11.6875,-0.6875,30.0,-0.20700000000000002,0.01,1.052,11.8125,75.9375,-12.625,93.72549019607843,10,0.0,0.0,0.0,0.0,0.0,0.0,221,1,1
27.125,8.5,36.8125,-0.439,0.07,0.786,59.5625,89.5625,-41.0,94.11764705882352,10,0.0,0.0,0.0,0.0,0.0,0.0,223,1,1
37.875,11.625,40.1875,-0.614,0.063,0.735,25.1875,108.6875,-17.9375,94.90196078431373,10,0.0,0.0,0.0,0.0,0.0,0.0,224,1,1
55.125,19.375,38.4375,-0.792,0.154,0.551,-3.0625,59.0,15.6875,94.90196078431373,10,0.0,0.0,0.0,0.0,0.0,0.0,226,1,1
59.75,23.25,37.0,-0.781,0.2,0.455,8.75,-13.875,-13.625,94.90196078431373,10,0.0,0.0,0.0,0.0,0.0,0.0,228,1,1
63.4375,19.0,42.1875,-0.937,0.11800000000000001,0.388,12.9375,1.6875,-21.5,94.50980392156863,10,0.0,0.0,0.0,0.0,0.0,0.0,230,1,1
64.5,17.625,44.3125,-0.853,0.095,0.393,-3.5,-9.125,1.4375,94.50980392156863,10,0.0,0.0,0.0,0.0,0.0,0.0,232,1,1
63.125,14.0625,44.9375,-0.915,0.081,0.47400000000000003,-12.6875,12.3125,1.0,94.11764705882352,10,0.0,0.0,0.0,0.0,0.0,0.0,234,1,1
62.6875,14.25,45.1875,-0.843,0.081,0.432,2.875,-8.0,-3.1875,94.50980392156863,10,0.0,0.0,0.0,0.0,0.0,0.0,236,1,1
56.0625,11.1875,48.3125,-0.807,0.058,0.484,38.125,-101.6875,-14.5625,94.90196078431373,10,0.0,0.0,0.0,0.0,0.0,0.0,238,1,1
19.125,10.125,54.3125,-0.342,0.161,0.873,-8.0625,-161.4375,23.8125,94.90196078431373,10,0.0,0.0,0.0,0.0,0.0,0.0,240,1,1
7.3125,8.625,52.5625,-0.121,0.107,1.066,-31.125,-76.125,37.25,94.11764705882352,10,0.0,0.0,0.0,0.0,0.0,0.0,241,1,1
1.9375,7.5625,49.8125,-0.007,0.049,1.066,5.5625,-30.5625,25.25,94.11764705882352,10,0.0,0.0,0.0,0.0,0.0,0.0,242,1,1
-0.0625,9.1875,47.9375,0.032,0.16,0.9430000000000001,24.3125,-12.4375,16.0625,94.11764705882352,10,0.0,0.0,0.0,0.0,0.0,0.0,243,1,1
0.75,10.0,46.3125,0.018000000000000002,0.177,0.894,-7.25,13.75,10.125,94.50980392156863,10,0.0,0.0,0.0,0.0,0.0,0.0,244,1,1
1.0625,8.875,46.4375,-0.034,0.154,0.933,-13.1875,5.9375,-11.0625,94.50980392156863,10,0.0,0.0,0.0,0.0,0.0,0.0,245,1,1
0.6875,6.8125,48.125,-0.056,0.08,0.984,-25.25,-7.4375,-17.9375,91.76470588235294,10,0.0,0.0,0.0,0.0,0.0,0.0,246,1,1
0.625,5.1875,48.4375,-0.097,0.062,1.032,0.4375,-5.0625,10.3125,93.33333333333333,10,0.0,0.0,0.0,0.0,0.0,0.0,247,1,1
0.3125,5.5625,45.6875,-0.059000000000000004,0.077,1.0210000000000001,5.625,13.4375,43.0625,92.94117647058823,10,0.0,0.0,0.0,0.0,0.0,0.0,248,1,1
0.875,7.0625,40.75,-0.061,0.101,0.997,21.0625,8.8125,62.25,94.50980392156863,10,0.0,0.0,0.0,0.0,0.0,0.0,249,1,1
-0.25,9.5625,32.375,-0.04,0.158,0.887,20.5,-3.125,92.25,94.50980392156863,10,0.0,0.0,0.0,0.0,0.0,0.0,250,1,1
0.0,9.25,22.0,-0.026000000000000002,0.146,0.9380000000000001,-17.3125,46.1875,121.375,94.11764705882352,10,0.0,0.0,0.0,0.0,0.0,0.0,251,1,1
2.5,7.0,10.0,0.035,0.057,1.018,-29.9375,27.0625,113.6875,94.50980392156863,10,0.0,0.0,0.0,0.0,0.0,0.0,252,1,1
-1.8125,10.0625,356.375,0.10200000000000001,0.11800000000000001,1.0190000000000001,35.9375,18.1875,63.875,94.50980392156863,10,0.0,0.0,0.0,0.0,0.0,0.0,254,1,1
-0.25,14.6875,349.5,0.02,0.214,0.929,48.625,25.5625,54.125,94.50980392156863,10,0.0,0.0,0.0,0.0,0.0,0.0,255,1,1
-0.625,18.0,343.75,0.069,0.266,0.874,29.6875,9.375,49.75,94.50980392156863,10,0.0,0.0,0.0,0.0,0.0,0.0,0,1,1
-1.1875,19.625,339.3125,0.085,0.314,0.923,14.125,20.3125,46.0625,94.50980392156863,10,0.0,0.0,0.0,0.0,0.0,0.0,1,1,1
-4.875,20.625,334.875,0.163,0.312,0.876,17.75,-36.5625,37.3125,94.11764705882352,10,0.0,0.0,0.0,0.0,0.0,0.0,2,1,1
-5.5,21.1875,332.625,0.091,0.339,0.876,3.25,-0.6875,21.1875,93.33333333333333,10,0.0,0.0,0.0,0.0,0.0,0.0,4,1,1
-8.625,19.6875,330.5,0.234,0.31,0.892,-16.75,-4.625,12.0,93.33333333333333,10,0.0,0.0,0.0,0.0,0.0,0.0,6,1,1
-9.625,16.9375,332.8125,0.156,0.256,0.9390000000000001,-2.875,-0.25,-2.625,94.50980392156863,10,0.0,0.0,0.0,0.0,0.0,0.0,8,1,1
-10.125,16.125,334.5625,0.216,0.258,0.892,-10.125,1.75,-4.8125,94.50980392156863,10,0.0,0.0,0.0,0.0,0.0,0.0,10,1,1
-6.6875,11.8125,341.5625,0.116,0.149,0.968,-35.8125,4.1875,-43.25,94.11764705882352,10,0.0,0.0,0.0,0.0,0.0,0.0,12,1,1
-6.9375,9.875,347.4375,0.095,0.17200000000000001,1.01,-21.8125,-27.4375,-45.75,94.11764705882352,10,0.0,0.0,0.0,0.0,0.0,0.0,13,1,1
-6.625,8.75,353.4375,0.107,0.136,0.984,-23.6875,31.0,-59.0625,94.50980392156863,10,0.0,0.0,0.0,0.0,0.0,0.0,14,1,1
0.375,5.6875,7.8125,-0.023,0.04,0.961,-6.125,-18.75,-80.0625,94.50980392156863,10,0.0,0.0,0.0,0.0,0.0,0.0,16,1,1
-1.125,4.6875,18.9375,0.014,0.051000000000000004,0.929,-14.9375,-9.25,-104.8125,92.15686274509804,10,0.0,0.0,0.0,0.0,0.0,0.0,17,1,1
-0.375,1.875,37.625,-0.023,-0.043000000000000003,1.0010000000000001,-0.5,-15.625,-92.4375,93.33333333333333,10,0.0,0.0,0.0,0.0,0.0,0.0,19,1,1
14.0625,1.3125,50.25,-0.275,0.019,0.879,-26.6875,74.25,-67.375,94.50980392156863,10,0.0,0.0,0.0,0.0,0.0,0.0,21,1,1
8.3125,-2.0,60.25,-0.168,-0.112,0.882,7.875,-18.875,-72.3125,94.50980392156863,10,0.0,0.0,0.0,0.0,0.0,0.0,23,1,1
4.4375,-0.375,66.875,-0.197,-0.053,0.966,37.6875,-100.1875,-27.3125,94.50980392156863,10,0.0,0.0,0.0,0.0,0.0,0.0,25,1,1
0.4375,-2.9375,67.3125,0.012,-0.17200000000000001,1.054,-17.875,5.8125,-3.9375,94.50980392156863,10,0.0,0.0,0.0,0.0,0.0,0.0,27,1,1
-1.0,-1.8125,67.75,-0.063,-0.097,0.9530000000000001,13.625,-21.5,-7.625,94.11764705882352,10,0.0,0.0,0.0,0.0,0.0,0.0,28,1,1
-2.3125,-2.0625,63.375,-0.018000000000000002,-0.113,1.039,40.625,-38.875,3.6875,94.50980392156863,10,0.0,0.0,0.0,0.0,0.0,0.0,30,1,1
-3.125,-1.1875,58.0,0.008,-0.077,1.037,26.0625,-33.9375,19.75,93.72549019607843,10,0.0,0.0,0.0,0.0,0.0,0.0,32,1,1
-5.875,-0.0625,51.375,0.09,-0.138,0.988,-13.0,22.5625,59.25,93.72549019607843,10,0.0,0.0,0.0,0.0,0.0,0.0,34,1,1
-6.625,-2.0,47.125,0.147,0.003,0.962,-16.8125,-33.4375,16.75,94.11764705882352,10,0.0,0.0,0.0,0.0,0.0,0.0,35,1,1
-1.0625,0.4375,47.75,0.049,-0.067,0.931,47.1875,-7.5,-60.875,94.50980392156863,10,0.0,0.0,0.0,0.0,0.0,0.0,37,1,1
-0.0625,3.375,61.1875,-0.178,0.101,1.046,-5.75,-25.5,-71.3125,94.11764705882352,10,0.0,0.0,0.0,0.0,0.0,0.0,39,1,1
-3.0,5.25,67.1875,0.023,-0.017,0.962,13.125,-25.5625,-50.9375,94.11764705882352,10,0.0,0.0,0.0,0.0,0.0,0.0,40,1,1
-4.4375,3.5625,71.75,-0.048,-0.022,1.02,-25.8125,-3.0,-30.375,94.50980392156863,10,0.0,0.0,0.0,0.0,0.0,0.0,41,1,1
-7.25,3.3125,72.875,0.179,-0.001,0.9390000000000001,14.375,-28.5,-5.3125,94.50980392156863,10,0.0,0.0,0.0,0.0,0.0,0.0,42,1,1
-2.1875,3.9375,73.5,-0.032,0.009000000000000001,1.045,-5.9375,38.0625,-14.75,94.11764705882352,10,0.0,0.0,0.0,0.0,0.0,0.0,43,1,1
-2.0625,8.4375,76.4375,0.038,0.045,0.905,70.4375,-41.4375,-39.25,94.11764705882352,10,0.0,0.0,0.0,0.0,0.0,0.0,44,1,1
-3.25,10.75,81.4375,0.15,0.214,1.02,-8.5625,-2.8125,-63.6875,93.72549019607843,10,0.0,0.0,0.0,0.0,0.0,0.0,45,1,1
-3.0,10.0625,89.9375,0.068,0.099,0.919,-28.5625,1.0,-104.1875,93.72549019607843,10,0.0,0.0,0.0,0.0,0.0,0.0,46,1,1
0.0625,5.4375,98.0625,-0.05,-0.065,1.0110000000000001,-48.6875,8.8125,-69.25,93.33333333333333,10,0.0,0.0,0.0,0.0,0.0,0.0,47,1,1
1.3125,3.125,102.5,-0.025,-0.026000000000000002,0.964,10.0,7.625,1.5,94.50980392156863,10,0.0,0.0,0.0,0.0,0.0,0.0,49,1,1
2.6875,1.9375,103.75,-0.092,-0.058,1.0030000000000001,-0.6875,3.0625,-8.5625,94.50980392156863,10,0.0,0.0,0.0,0.0,0.0,0.0,51,1,1
2.75,0.8125,102.375,-0.11900000000000001,-0.06,0.975,-1.75,-4.375,17.625,94.50980392156863,10,0.0,0.0,0.0,0.0,0.0,0.0,53,1,1
1.5625,2.375,96.6875,-0.23600000000000002,-0.10400000000000001,1.071,38.6875,-25.375,95.5625,94.90196078431373,10,0.0,0.0,0.0,0.0,0.0,0.0,54,1,1
-0.875,7.8125,82.5625,-0.079,0.029,0.969,49.125,-14.5625,190.1875,94.50980392156863,10,0.0,0.0,0.0,0.0,0.0,0.0,55,1,1
0.3125,1.625,37.0625,-0.125,-0.067,0.982,-70.75,52.625,203.5625,94.11764705882352,10,0.0,0.0,0.0,0.0,0.0,0.0,57,1,1
13.0625,2.4375,357.9375,-0.168,-0.022,1.125,84.9375,-36.875,144.9375,93.72549019607843,10,0.0,0.0,0.0,0.0,0.0,0.0,59,1,1
7.75,6.5625,348.875,-0.078,0.07,0.9580000000000001,-24.5,-36.75,-3.8125,94.50980392156863,10,0.0,0.0,0.0,0.0,0.0,0.0,61,1,1
7.9375,5.625,349.5625,-0.14200000000000002,0.059000000000000004,0.9520000000000001,5.9375,10.375,5.25,94.11764705882352,10,0.0,0.0,0.0,0.0,0.0,0.0,63,1,1
7.0,4.9375,350.5,-0.059000000000000004,0.063,0.967,-8.0,-12.0,-10.5,94.50980392156863,10,0.0,0.0,0.0,0.0,0.0,0.0,65,1,1
9.375,-7.625,11.8125,0.034,-0.396,1.175,-28.375,49.1875,-202.0,94.11764705882352,10,0.0,0.0,0.0,0.0,0.0,0.0,67,1,1
0.5,1.5,55.0,-0.218,-0.152,0.847,34.0,18.0625,-135.5625,94.50980392156863,10,0.0,0.0,0.0,0.0,0.0,0.0,69,1,1
3.125,2.0,60.875,-0.029,-0.007,0.978,22.9375,-27.1875,23.5,93.72549019607843,10,0.0,0.0,0.0,0.0,0.0,0.0,71,1,1
2.875,2.9375,59.625,-0.08700000000000001,-0.004,0.985,6.9375,-4.3125,-2.5,93.72549019607843,10,0.0,0.0,0.0,0.0,0.0,0.0,73,1,1
2.5625,3.0,56.5,-0.058,0.043000000000000003,0.9540000000000001,3.4375,-9.125,17.0625,94.50980392156863,10,0.0,0.0,0.0,0.0,0.0,0.0,75,1,1
0.1875,1.6875,52.375,0.025,-0.013000000000000001,1.002,-1.0625,-27.625,15.375,94.50980392156863,10,0.0,0.0,0.0,0.0,0.0,0.0,77,1,1
-1.1875,0.0,50.1875,0.005,-0.006,1.027,-24.75,17.75,3.0,94.50980392156863,10,0.0,0.0,0.0,0.0,0.0,0.0,79,1,1
-14.5625,3.625,47.5625,0.371,0.018000000000000002,0.8170000000000001,30.8125,-64.625,32.6875,94.50980392156863,10,0.0,0.0,0.0,0.0,0.0,0.0,81,1,1
-19.125,3.25,47.9375,0.339,-0.025,0.982,4.4375,-73.1875,-24.375,94.11764705882352,10,0.0,0.0,0.0,0.0,0.0,0.0,83,1,1
-25.625,9.1875,50.75,0.426,0.105,0.849,20.5,-1.125,-3.0625,93.72549019607843,10,0.0,0.0,0.0,0.0,0.0,0.0,85,1,1
-33.9375,20.8125,53.75,0.468,0.274,0.7010000000000001,50.5625,-60.0,-22.0,93.72549019607843,10,0.0,0.0,0.0,0.0,0.0,0.0,87,1,1
-37.6875,25.375,53.8125,0.587,0.298,0.655,5.875,-8.3125,4.0625,94.50980392156863,10,0.0,0.0,0.0,0.0,0.0,0.0,88,1,1
-40.9375,25.9375,54.0,0.636,0.28500000000000003,0.66,2.5625,-11.0625,11.875,94.50980392156863,10,0.0,0.0,0.0,0.0,0.0,0.0,90,1,1
-42.875,23.8125,51.4375,0.683,0.277,0.634,3.125,-6.4375,10.0625,94.50980392156863,10,0.0,0.0,0.0,0.0,0.0,0.0,92,1,1
-43.3125,22.9375,51.375,0.662,0.251,0.663,-0.5,1.25,-1.875,94.50980392156863,10,0.0,0.0,0.0,0.0,0.0,0.0,94,1,1
-43.375,22.3125,51.0,0.648,0.253,0.621,-4.0,2.9375,11.4375,94.50980392156863,10,0.0,0.0,0.0,0.0,0.0,0.0,95,1,1
-44.125,19.5625,49.125,0.715,0.216,0.663,1.625,-3.125,6.3125,94.50980392156863,10,0.0,0.0,0.0,0.0,0.0,0.0,97,1,1
-44.625,18.9375,48.375,0.6900000000000001,0.214,0.673,-1.3125,1.75,7.9375,93.33333333333333,10,0.0,0.0,0.0,0.0,0.0,0.0,99,1,1
-44.6875,18.0,47.625,0.722,0.211,0.634,-4.4375,5.25,1.375,93.72549019607843,10,0.0,0.0,0.0,0.0,0.0,0.0,101,1,1
-40.875,11.4375,46.6875,0.619,0.1,0.727,-18.9375,23.8125,20.4375,94.50980392156863,10,0.0,0.0,0.0,0.0,0.0,0.0,103,1,1
-25.5625,-3.1875,42.875,0.291,-0.113,0.982,-82.875,159.25,41.0625,94.50980392156863,10,0.0,0.0,0.0,0.0,0.0,0.0,105,1,1
-15.1875,-9.9375,39.9375,0.26,-0.198,0.904,-61.625,121.0,40.8125,94.11764705882352,10,0.0,0.0,0.0,0.0,0.0,0.0,106,1,1
6.25,-18.9375,39.125,-0.094,-0.333,1.043,-7.5625,86.4375,-7.8125,94.50980392156863,10,0.0,0.0,0.0,0.0,0.0,0.0,108,1,1
22.5625,-15.8125,42.125,-0.392,-0.248,0.862,37.6875,74.625,22.375,94.90196078431373,10,0.0,0.0,0.0,0.0,0.0,0.0,110,1,1
34.375,-14.0625,43.6875,-0.485,-0.161,0.704,-13.4375,55.5625,0.5,92.94117647058823,10,0.0,0.0,0.0,0.0,0.0,0.0,112,1,1
46.0625,-18.1875,47.0,-0.708,-0.28500000000000003,0.72,17.0625,38.4375,-4.3125,93.72549019607843,10,0.0,0.0,0.0,0.0,0.0,0.0,114,1,1
49.25,-17.1875,48.8125,-0.738,-0.21,0.647,-0.0625,17.5,4.5,94.90196078431373,10,0.0,0.0,0.0,0.0,0.0,0.0,116,1,1
51.1875,-18.375,50.3125,-0.744,-0.193,0.581,-0.375,14.25,-8.875,94.90196078431373,10,0.0,0.0,0.0,0.0,0.0,0.0,118,1,1
52.875,-20.4375,51.0625,-0.741,-0.228,0.594,-6.3125,4.0,7.5,94.90196078431373,10,0.0,0.0,0.0,0.0,0.0,0.0,120,1,1
54.75,-20.875,52.8125,-0.786,-0.213,0.523,3.75,7.4375,-7.0,94.90196078431373,10,0.0,0.0,0.0,0.0,0.0,0.0,122,1,1
53.375,-21.6875,55.1875,-0.803,-0.256,0.579,15.5,-21.3125,-12.8125,94.50980392156863,10,0.0,0.0,0.0,0.0,0.0,0.0,124,1,1
28.5625,-7.625,53.3125,-0.307,-0.125,0.767,20.6875,-171.5625,78.1875,94.11764705882352,10,0.0,0.0,0.0,0.0,0.0,0.0,126,1,1
11.6875,-7.9375,44.75,-0.078,-0.267,1.107,-4.4375,-29.75,12.125,93.72549019607843,10,0.0,0.0,0.0,0.0,0.0,0.0,128,1,1
2.9375,0.5625,46.3125,-0.039,0.004,0.9460000000000001,36.3125,-3.5,-7.25,94.90196078431373,10,0.0,0.0,0.0,0.0,0.0,0.0,130,1,1
-2.4375,10.6875,47.625,0.073,0.176,1.029,76.6875,-41.1875,-10.4375,94.90196078431373,10,0.0,0.0,0.0,0.0,0.0,0.0,132,1,1
-7.3125,30.1875,52.5625,0.126,0.424,0.797,96.9375,-6.5,-40.75,94.90196078431373,10,0.0,0.0,0.0,0.0,0.0,0.0,134,1,1
-0.75,45.4375,54.375,-0.088,0.614,0.704,81.0,10.125,-4.6875,94.90196078431373,10,0.0,0.0,0.0,0.0,0.0,0.0,136,1,1
-0.4375,61.3125,52.25,-0.027,0.784,0.34,67.375,-22.5,-3.6875,94.90196078431373,10,0.0,0.0,0.0,0.0,0.0,0.0,138,1,1
-2.125,64.6875,48.3125,0.091,0.863,0.392,-3.5,2.9375,-7.875,94.11764705882352,10,0.0,0.0,0.0,0.0,0.0,0.0,140,1,1
-0.375,64.0625,47.5625,-0.026000000000000002,0.806,0.41200000000000003,-0.5625,-3.4375,-0.5625,94.50980392156863,10,0.0,0.0,0.0,0.0,0.0,0.0,142,1,1
-1.4375,63.0,44.375,0.055,0.841,0.403,-9.0,1.1875,-0.4375,94.90196078431373,10,0.0,0.0,0.0,0.0,0.0,0.0,144,1,1
-1.3125,61.1875,43.5,0.028,0.803,0.379,-31.25,12.375,3.3125,94.50980392156863,10,0.0,0.0,0.0,0.0,0.0,0.0,145,1,1
-0.4375,43.625,35.8125,-0.048,0.585,0.5660000000000001,-147.0625,43.5625,35.375,94.90196078431373,10,0.0,0.0,0.0,0.0,0.0,0.0,147,1,1
1.8125,10.6875,26.0625,-0.066,0.083,1.016,-155.9375,29.0625,47.375,94.90196078431373,10,0.0,0.0,0.0,0.0,0.0,0.0,149,1,1
6.8125,-3.4375,20.875,-0.11900000000000001,-0.203,1.101,-136.5,40.8125,41.0,94.90196078431373,10,0.0,0.0,0.0,0.0,0.0,0.0,150,1,1
6.4375,-22.375,15.0625,-0.068,-0.395,0.88,-84.0625,26.0,29.3125,94.50980392156863,10,0.0,0.0,0.0,0.0,0.0,0.0,152,1,1
7.75,-38.4375,12.25,-0.08,-0.605,0.749,-66.625,-20.625,-0.625,94.11764705882352,10,0.0,0.0,0.0,0.0,0.0,0.0,154,1,1
9.1875,-53.75,12.6875,-0.153,-0.805,0.6950000000000001,-42.75,24.5625,15.3125,94.90196078431373,10,0.0,0.0,0.0,0.0,0.0,0.0,156,1,1
10.0,-56.0,14.625,-0.145,-0.8170000000000001,0.591,1.375,-2.875,-13.625,94.90196078431373,10,0.0,0.0,0.0,0.0,0.0,0.0,158,1,1
9.0,-55.5625,17.4375,-0.158,-0.81,0.581,2.0625,0.0625,-2.75,94.50980392156863,10,0.0,0.0,0.0,0.0,0.0,0.0,160,1,1
9.1875,-54.4375,18.375,-0.145,-0.788,0.673,11.4375,0.5,-1.9375,94.90196078431373,10,0.0,0.0,0.0,0.0,0.0,0.0,162,1,1
2.25,-38.75,23.1875,0.0,-0.715,0.9410000000000001,166.25,-47.9375,-59.25,94.90196078431373,10,0.0,0.0,0.0,0.0,0.0,0.0,164,1,1
-16.125,-0.6875,32.5,0.195,-0.107,0.722,115.375,-37.625,-55.5625,94.90196078431373,10,0.0,0.0,0.0,0.0,0.0,0.0,166,1,1
-12.125,0.9375,30.8125,0.23500000000000001,-0.007,0.974,-2.125,-0.1875,27.625,94.11764705882352,10,0.0,0.0,0.0,0.0,0.0,0.0,168,1,1
-12.0,-0.625,29.5,0.23,-0.034,0.986,-4.3125,8.5,-6.375,94.90196078431373,10,0.0,0.0,0.0,0.0,0.0,0.0,170,1,1
-11.625,1.0,30.9375,0.17400000000000002,0.005,0.9440000000000001,3.625,9.1875,-1.9375,94.90196078431373,10,0.0,0.0,0.0,0.0,0.0,0.0,172,1,1
-10.75,-0.0625,30.1875,0.162,-0.027,0.993,-4.625,10.6875,14.0,94.50980392156863,10,0.0,0.0,0.0,0.0,0.0,0.0,174,1,1
-5.5,0.6875,17.8125,0.045,-0.044,0.963,25.75,45.3125,108.0625,94.90196078431373,10,0.0,0.0,0.0,0.0,0.0,0.0,176,1,1
-3.0625,3.75,356.8125,0.038,0.073,0.9490000000000001,5.8125,-7.3125,103.1875,94.90196078431373,10,0.0,0.0,0.0,0.0,0.0,0.0,178,1,1
0.3125,4.9375,335.1875,0.057,0.039,1.066,15.375,15.3125,108.625,94.90196078431373,10,0.0,0.0,0.0,0.0,0.0,0.0,180,1,1
-0.1875,10.6875,325.125,0.10300000000000001,0.17,0.9410000000000001,41.0625,3.375,10.0625,94.11764705882352,10,0.0,0.0,0.0,0.0,0.0,0.0,182,1,1
0.25,12.3125,326.375,0.017,0.20800000000000002,0.9400000000000001,-19.8125,5.25,4.1875,94.90196078431373,10,0.0,0.0,0.0,0.0,0.0,0.0,184,1,1
-0.5625,9.875,325.6875,0.07,0.16,0.965,-6.0625,-2.9375,2.9375,94.90196078431373,10,0.0,0.0,0.0,0.0,0.0,0.0,186,1,1
-1.1875,8.6875,326.0,0.036000000000000004,0.148,0.967,-7.0,-4.125,-0.0625,94.50980392156863,10,0.0,0.0,0.0,0.0,0.0,0.0,188,1,1
-1.5,7.75,326.9375,0.046,0.13,0.987,-0.375,0.5,-3.1875,94.90196078431373,10,0.0,0.0,0.0,0.0,0.0,0.0,190,1,1
-1.8125,8.0625,331.75,0.04,0.137,0.96,-2.9375,-2.4375,-38.4375,94.90196078431373,10,0.0,0.0,0.0,0.0,0.0,0.0,192,1,1
-2.25,5.625,339.875,0.025,0.084,0.961,-28.0,-11.5625,-34.5,94.50980392156863,10,0.0,0.0,0.0,0.0,0.0,0.0,194,1,1
-3.4375,0.375,348.75,0.059000000000000004,-0.018000000000000002,1.016,-32.25,-8.3125,-48.5625,94.11764705882352,10,0.0,0.0,0.0,0.0,0.0,0.0,196,1,1
-4.6875,-1.5625,2.375,0.036000000000000004,-0.026000000000000002,1.0210000000000001,-0.25,13.1875,-66.125,94.90196078431373,10,0.0,0.0,0.0,0.0,0.0,0.0,198,1,1
-7.0625,0.0625,14.5625,0.105,-0.05,1.0210000000000001,9.3125,10.375,-53.5,94.50980392156863,10,0.0,0.0,0.0,0.0,0.0,0.0,200,1,1
-3.3125,9.5,27.125,0.031,0.02,0.936,71.375,11.4375,-81.5625,94.90196078431373,10,0.0,0.0,0.0,0.0,0.0,0.0,202,1,1
-2.9375,15.875,34.9375,-0.07200000000000001,0.234,0.839,-24.0625,12.0,-2.5,94.90196078431373,10,0.0,0.0,0.0,0.0,0.0,0.0,204,1,1
-9.1875,3.3125,32.6875,0.063,0.011,1.044,-44.9375,0.875,57.875,94.50980392156863,10,0.0,0.0,0.0,0.0,0.0,0.0,206,1,1
0.75,0.0625,24.6875,0.07,-0.022,0.8300000000000001,-5.375,6.1875,3.5625,94.11764705882352,10,0.0,0.0,0.0,0.0,0.0,0.0,208,1,1
-4.1875,3.1875,26.0,0.07,-0.024,0.985,60.125,4.125,-58.6875,93.72549019607843,10,0.0,0.0,0.0,0.0,0.0,0.0,210,1,1
14.0625,10.625,31.5,-0.381,0.168,1.081,79.4375,-235.8125,-62.625,94.90196078431373,10,0.0,0.0,0.0,0.0,0.0,0.0,212,1,1
4.8125,10.4375,36.3125,-0.166,-0.017,1.004,-1.375,-30.9375,2.875,94.90196078431373,10,0.0,0.0,0.0,0.0,0.0,0.0,214,1,1
1.25,5.625,30.6875,-0.046,0.165,0.96,-50.75,-11.125,36.125,94.90196078431373,10,0.0,0.0,0.0,0.0,0.0,0.0,216,1,1
2.625,2.9375,27.5,-0.041,0.007,1.04,-14.0,11.8125,20.1875,94.90196078431373,10,0.0,0.0,0.0,0.0,0.0,0.0,217,1,1
2.6875,0.5625,26.625,-0.053,0.028,0.966,-21.1875,23.8125,33.125,94.50980392156863,10,0.0,0.0,0.0,0.0,0.0,0.0,219,1,1
2.1875,-2.8125,24.9375,-0.013000000000000001,-0.094,1.012,4.8125,-22.4375,-18.375,92.54901960784314,10,0.0,0.0,0.0,0.0,0.0,0.0,221,1,1
1.3125,-1.0,31.8125,-0.06,-0.028,1.0010000000000001,23.9375,0.125,-56.3125,94.11764705882352,10,0.0,0.0,0.0,0.0,0.0,0.0,223,1,1
-4.5,7.5625,45.1875,0.129,0.114,1.024,27.0,-19.5625,-69.5625,94.50980392156863,10,0.0,0.0,0.0,0.0,0.0,0.0,225,1,1
-4.0,12.5,60.75,0.005,0.159,0.9470000000000001,5.75,-14.5,-87.25,94.90196078431373,10,0.0,0.0,0.0,0.0,0.0,0.0,227,1,1
-3.9375,11.0,72.25,0.029,0.136,0.969,3.1875,-7.0625,-47.25,94.50980392156863,10,0.0,0.0,0.0,0.0,0.0,0.0,229,1,1
-3.8125,8.875,83.3125,0.097,0.109,0.991,-35.6875,5.8125,-62.4375,94.90196078431373,10,0.0,0.0,0.0,0.0,0.0,0.0,231,1,1
-2.375,7.25,89.1875,-0.01,0.034,1.0130000000000001,-7.6875,15.3125,-51.875,94.50980392156863,10,0.0,0.0,0.0,0.0,0.0,0.0,232,1,1
1.75,6.3125,94.8125,-0.07100000000000001,0.05,0.995,-1.375,2.875,-8.6875,94.50980392156863,10,0.0,0.0,0.0,0.0,0.0,0.0,234,1,1
1.25,5.3125,94.5,0.004,0.044,0.989,-3.9375,-1.75,0.9375,94.11764705882352,10,0.0,0.0,0.0,0.0,0.0,0.0,236,1,1
1.0,4.3125,93.875,-0.038,0.044,0.984,-8.5625,-5.5625,16.6875,93.72549019607843,10,0.0,0.0,0.0,0.0,0.0,0.0,238,1,1
-2.625,2.9375,87.5625,0.023,0.012,1.006,6.0625,-21.875,56.375,94.90196078431373,10,0.0,0.0,0.0,0.0,0.0,0.0,240,1,1
-5.0625,3.875,69.25,0.11,-0.001,0.998,4.4375,1.875,108.3125,94.90196078431373,10,0.0,0.0,0.0,0.0,0.0,0.0,242,1,1
-5.9375,0.6875,54.375,0.129,-0.035,0.96,-24.0625,10.375,73.1875,94.90196078431373,10,0.0,0.0,0.0,0.0,0.0,0.0,244,1,1
-5.25,-1.375,48.3125,0.10300000000000001,-0.088,0.976,-6.125,-4.5,45.0625,94.90196078431373,10,0.0,0.0,0.0,0.0,0.0,0.0,245,1,1
-4.8125,-4.0,39.5,0.108,-0.065,1.008,-6.0,5.0,30.4375,94.90196078431373,10,0.0,0.0,0.0,0.0,0.0,0.0,247,1,1
-6.25,-6.625,35.6875,0.14100000000000001,-0.146,1.0010000000000001,-18.8125,0.3125,15.0625,93.72549019607843,10,0.0,0.0,0.0,0.0,0.0,0.0,249,1,1
-8.5,-5.5,37.25,0.157,-0.111,1.0030000000000001,23.375,-1.5625,-33.75,94.11764705882352,10,0.0,0.0,0.0,0.0,0.0,0.0,251,1,1
-6.4375,-4.625,35.875,0.096,-0.109,0.9400000000000001,-19.8125,14.25,43.3125,94.90196078431373,10,0.0,0.0,0.0,0.0,0.0,0.0,253,1,1
-4.0,-2.5,31.125,0.043000000000000003,0.001,1.0,40.5625,-5.75,24.4375,94.90196078431373,10,0.0,0.0,0.0,0.0,0.0,0.0,255,1,1
4.0625,-0.8125,25.25,-0.039,-0.084,1.0010000000000001,9.5625,10.25,44.5,94.90196078431373,10,0.0,0.0,0.0,0.0,0.0,0.0,1,1,1
1.1875,3.4375,16.875,-0.051000000000000004,0.127,0.886,-17.5,-21.1875,56.8125,94.90196078431373,10,0.0,0.0,0.0,0.0,0.0,0.0,3,1,1
-0.75,2.0,5.25,0.043000000000000003,-0.053,1.024,9.6875,-33.3125,54.5625,94.11764705882352,10,0.0,0.0,0.0,0.0,0.0,0.0,5,1,1
-4.9375,1.6875,355.0,0.137,0.06,0.932,-42.9375,48.5625,46.6875,94.11764705882352,10,0.0,0.0,0.0,0.0,0.0,0.0,7,1,1
-2.875,-3.375,347.625,0.223,-0.064,0.978,9.75,-68.1875,-6.8125,94.90196078431373,10,0.0,0.0,0.0,0.0,0.0,0.0,9,1,1
-4.6875,0.3125,348.1875,0.108,0.03,0.9460000000000001,8.0,-20.125,6.375,94.50980392156863,10,0.0,0.0,0.0,0.0,0.0,0.0,11,1,1
2.8125,6.3125,344.0,-0.027,0.065,1.0010000000000001,46.875,60.0,28.0,94.90196078431373,10,0.0,0.0,0.0,0.0,0.0,0.0,13,1,1
2.8125,8.375,343.5,-0.012,0.15,0.889,6.5,-15.1875,5.9375,94.50980392156863,10,0.0,0.0,0.0,0.0,0.0,0.0,14,1,1
1.75,8.0625,342.5625,-0.038,0.111,1.037,1.375,4.0,12.625,94.90196078431373,10,0.0,0.0,0.0,0.0,0.0,0.0,15,1,1
3.5625,9.6875,340.75,-0.015,0.17300000000000001,0.9430000000000001,14.1875,3.875,11.1875,94.50980392156863,10,0.0,0.0,0.0,0.0,0.0,0.0,16,1,1
4.4375,10.625,339.625,-0.003,0.18,0.9400000000000001,1.9375,8.6875,7.8125,94.90196078431373,10,0.0,0.0,0.0,0.0,0.0,0.0,17,1,1
4.1875,10.125,339.75,-0.041,0.14400000000000002,0.998,-0.125,4.1875,-2.0625,94.90196078431373,10,0.0,0.0,0.0,0.0,0.0,0.0,18,1,1
5.0625,11.625,346.375,-0.036000000000000004,0.178,0.9470000000000001,23.8125,-0.0625,-63.0625,94.11764705882352,10,0.0,0.0,0.0,0.0,0.0,0.0,20,1,1
3.5,12.625,5.625,-0.09,0.164,0.968,4.125,-68.4375,-102.875,94.90196078431373,10,0.0,0.0,0.0,0.0,0.0,0.0,22,1,1
-9.0625,7.75,23.875,0.171,0.07200000000000001,0.993,-8.75,-25.625,-58.25,94.90196078431373,10,0.0,0.0,0.0,0.0,0.0,0.0,24,1,1
-5.875,10.125,36.5,0.074,0.136,0.9400000000000001,1.3125,-70.6875,-109.3125,94.50980392156863,10,0.0,0.0,0.0,0.0,0.0,0.0,26,1,1
-5.875,10.3125,48.9375,0.019,0.154,0.978,-4.25,18.8125,-16.8125,94.90196078431373,10,0.0,0.0,0.0,0.0,0.0,0.0,28,1,1
-8.0,9.8125,45.625,0.164,0.166,0.9510000000000001,2.25,6.25,34.375,94.90196078431373,10,0.0,0.0,0.0,0.0,0.0,0.0,30,1,1
-3.5625,7.375,38.5625,0.039,0.094,1.0,-10.0,-25.25,8.625,94.50980392156863,10,0.0,0.0,0.0,0.0,0.0,0.0,32,1,1
-5.375,6.125,35.4375,0.09,0.053,1.02,30.125,22.6875,10.3125,93.72549019607843,10,0.0,0.0,0.0,0.0,0.0,0.0,34,1,1
-0.8125,16.75,32.125,0.024,0.21,1.04,105.0,67.1875,23.625,94.90196078431373,10,0.0,0.0,0.0,0.0,0.0,0.0,36,1,1
-1.4375,44.6875,37.3125,0.005,0.714,0.452,67.5,12.0,-30.875,94.50980392156863,10,0.0,0.0,0.0,0.0,0.0,0.0,38,1,1
-0.75,47.3125,38.3125,0.021,0.669,0.806,-9.375,1.625,15.5625,94.90196078431373,10,0.0,0.0,0.0,0.0,0.0,0.0,40,1,1
-0.6875,48.5,36.375,-0.009000000000000001,0.6950000000000001,0.622,-1.3125,-1.25,-0.625,94.90196078431373,10,0.0,0.0,0.0,0.0,0.0,0.0,42,1,1
-0.6875,45.6875,34.4375,0.015,0.681,0.667,-27.875,9.375,-1.9375,94.90196078431373,10,0.0,0.0,0.0,0.0,0.0,0.0,44,1,1
3.9375,30.8125,30.3125,-0.155,0.435,0.731,-126.1875,56.3125,23.75,93.72549019607843,10,0.0,0.0,0.0,0.0,0.0,0.0,46,1,1
2.5,4.75,20.25,-0.07200000000000001,-0.059000000000000004,1.0230000000000001,-126.0,-37.125,56.25,94.11764705882352,10,0.0,0.0,0.0,0.0,0.0,0.0,48,1,1
2.5,-3.375,10.25,0.053,-0.066,1.018,5.0,6.75,8.3125,94.90196078431373,10,0.0,0.0,0.0,0.0,0.0,0.0,50,1,1
3.4375,-3.0625,10.75,-0.083,-0.065,0.9580000000000001,-5.125,-1.75,5.375,94.11764705882352,10,0.0,0.0,0.0,0.0,0.0,0.0,52,1,1
3.3125,-3.75,10.0,-0.049,-0.062,0.988,0.875,-5.875,-2.5,94.50980392156863,10,0.0,0.0,0.0,0.0,0.0,0.0,54,1,1
3.0625,-3.4375,10.75,-0.083,-0.06,0.976,2.75,-8.375,0.125,94.90196078431373,10,0.0,0.0,0.0,0.0,0.0,0.0,56,1,1
2.6875,-2.25,0.375,-0.248,-0.073,0.982,5.0625,30.75,139.75,94.90196078431373,10,0.0,0.0,0.0,0.0,0.0,0.0,58,1,1
2.375,-4.0625,328.5625,0.225,-0.11800000000000001,1.0050000000000001,-20.6875,-29.625,99.3125,92.54901960784314,10,0.0,0.0,0.0,0.0,0.0,0.0,60,1,1
1.25,-4.125,325.3125,0.005,-0.08,0.999,9.8125,-2.8125,-15.875,94.11764705882352,10,0.0,0.0,0.0,0.0,0.0,0.0,62,1,1
0.5625,-3.75,327.875,0.013000000000000001,-0.064,0.987,-5.0625,-1.375,1.875,94.50980392156863,10,0.0,0.0,0.0,0.0,0.0,0.0,64,1,1
0.0,-3.6875,329.5,0.033,-0.059000000000000004,0.977,3.9375,3.0625,-8.0625,94.90196078431373,10,0.0,0.0,0.0,0.0,0.0,0.0,66,1,1
-0.6875,-3.625,331.75,0.159,-0.1,1.052,7.0625,-6.25,-33.9375,94.90196078431373,10,0.0,0.0,0.0,0.0,0.0,0.0,67,1,1
-6.5625,3.75,1.4375,0.157,-0.067,0.997,34.0625,-26.875,-240.3125,94.50980392156863,10,0.0,0.0,0.0,0.0,0.0,0.0,69,1,1
-7.125,10.5625,24.375,-0.055,-0.004,1.034,60.625,-59.875,-228.4375,94.90196078431373,10,0.0,0.0,0.0,0.0,0.0,0.0,70,1,1
-5.1875,18.75,51.4375,0.13,0.166,0.862,-2.875,-3.375,-54.25,94.90196078431373,10,0.0,0.0,0.0,0.0,0.0,0.0,72,1,1
-4.5625,20.0,57.4375,0.051000000000000004,0.28800000000000003,0.935,-2.3125,0.875,-8.4375,93.72549019607843,10,0.0,0.0,0.0,0.0,0.0,0.0,74,1,1
-4.5625,20.0,59.125,0.041,0.314,0.907,-1.25,-3.125,-18.5,94.11764705882352,10,0.0,0.0,0.0,0.0,0.0,0.0,76,1,1
-3.8125,20.4375,62.25,0.14400000000000002,0.28300000000000003,0.986,19.625,-0.8125,-37.875,94.90196078431373,10,0.0,0.0,0.0,0.0,0.0,0.0,78,1,1
1.125,24.3125,76.4375,-0.077,0.356,0.787,-10.0625,2.6875,-83.625,94.90196078431373,10,0.0,0.0,0.0,0.0,0.0,0.0,80,1,1
4.5,18.6875,86.75,-0.11900000000000001,0.20400000000000001,1.04,-20.375,8.6875,-9.6875,94.90196078431373,10,0.0,0.0,0.0,0.0,0.0,0.0,82,1,1
4.625,19.4375,85.1875,-0.093,0.336,0.867,2.4375,-2.6875,8.3125,94.90196078431373,10,0.0,0.0,0.0,0.0,0.0,0.0,84,1,1
4.125,17.5,84.4375,-0.088,0.24,0.98,-7.1875,-2.5625,-1.375,94.90196078431373,10,0.0,0.0,0.0,0.0,0.0,0.0,86,1,1
4.6875,16.0,81.9375,-0.242,0.22,0.929,-13.25,13.3125,43.1875,94.11764705882352,10,0.0,0.0,0.0,0.0,0.0,0.0,88,1,1
-1.0,14.1875,60.5625,-0.088,0.11900000000000001,1.0030000000000001,1.1875,-9.75,165.4375,94.11764705882352,10,0.0,0.0,0.0,0.0,0.0,0.0,90,1,1
-6.875,11.5625,15.125,0.10400000000000001,-0.018000000000000002,0.849,-18.25,25.3125,253.9375,94.90196078431373,10,0.0,0.0,0.0,0.0,0.0,0.0,92,1,1
-6.1875,0.3125,336.9375,0.404,-0.10400000000000001,1.089,-11.25,-39.3125,78.25,94.90196078431373,10,0.0,0.0,0.0,0.0,0.0,0.0,94,1,1
-6.625,0.625,333.4375,0.129,0.015,0.9460000000000001,3.625,9.8125,-2.375,94.90196078431373,10,0.0,0.0,0.0,0.0,0.0,0.0,96,1,1
-6.125,1.1875,334.4375,0.14100000000000001,0.013000000000000001,0.967,-1.6875,0.3125,-0.9375,94.90196078431373,10,0.0,0.0,0.0,0.0,0.0,0.0,98,1,1
-6.0,1.0625,335.4375,0.127,0.012,0.975,-1.0,-0.75,0.1875,94.50980392156863,10,0.0,0.0,0.0,0.0,0.0,0.0,100,1,1
-6.375,2.125,339.9375,0.221,-0.01,1.004,12.875,-17.1875,-60.1875,94.11764705882352,10,0.0,0.0,0.0,0.0,0.0,0.0,102,1,1
-6.3125,6.5625,5.3125,0.14200000000000002,0.018000000000000002,0.998,-10.5,-9.0625,-191.0,94.50980392156863,10,0.0,0.0,0.0,0.0,0.0,0.0,104,1,1
-2.1875,14.4375,35.625,-0.193,0.23800000000000002,0.875,41.375,11.875,-124.3125,94.90196078431373,10,0.0,0.0,0.0,0.0,0.0,0.0,106,1,1
-0.6875,13.9375,43.6875,0.005,0.156,1.045,-13.625,-0.625,-3.5625,94.90196078431373,10,0.0,0.0,0.0,0.0,0.0,0.0,108,1,1
-0.4375,15.0625,45.4375,0.068,0.242,0.926,8.0625,-0.0625,-19.5625,94.90196078431373,10,0.0,0.0,0.0,0.0,0.0,0.0,110,1,1
1.5625,17.0625,65.8125,-0.21,0.148,0.9390000000000001,-3.0,-2.8125,-130.3125,94.50980392156863,10,0.0,0.0,0.0,0.0,0.0,0.0,112,1,1
2.25,15.125,71.1875,-0.019,0.197,0.993,4.9375,-16.125,21.0625,93.33333333333333,10,0.0,0.0,0.0,0.0,0.0,0.0,114,1,1
1.3125,14.4375,71.1875,-0.025,0.195,0.9570000000000001,-7.9375,0.5625,-19.625,93.72549019607843,10,0.0,0.0,0.0,0.0,0.0,0.0,116,1,1
1.9375,13.375,72.5,-0.069,0.201,0.9470000000000001,3.4375,-2.3125,-7.625,94.90196078431373,10,0.0,0.0,0.0,0.0,0.0,0.0,118,1,1
1.9375,11.4375,65.75,-0.162,0.10400000000000001,0.99,-13.5,-7.875,84.875,94.90196078431373,10,0.0,0.0,0.0,0.0,0.0,0.0,120,1,1
-3.6875,11.375,40.3125,-0.039,0.106,1.0190000000000001,15.375,24.5625,181.125,94.90196078431373,10,0.0,0.0,0.0,0.0,0.0,0.0,122,1,1
-6.1875,9.0625,356.4375,0.213,0.029,0.882,-5.75,34.875,178.0,94.90196078431373,10,0.0,0.0,0.0,0.0,0.0,0.0,124,1,1
-4.5,5.5,339.0,0.304,0.045,1.041,7.4375,-5.5,-2.4375,94.50980392156863,10,0.0,0.0,0.0,0.0,0.0,0.0,126,1,1
-7.125,9.0,352.375,0.309,0.057,0.87,-12.75,-67.375,-141.4375,94.11764705882352,10,0.0,0.0,0.0,0.0,0.0,0.0,128,1,1
-4.5,8.625,26.4375,0.078,-0.017,1.081,10.0,6.6875,-151.1875,94.11764705882352,10,0.0,0.0,0.0,0.0,0.0,0.0,130,1,1
-2.0,11.9375,57.75,-0.171,0.23800000000000002,0.9560000000000001,-12.6875,1.0,-85.875,94.90196078431373,10,0.0,0.0,0.0,0.0,0.0,0.0,132,1,1
-0.3125,8.625,71.0,-0.07100000000000001,0.066,0.995,-37.1875,3.1875,-40.6875,94.50980392156863,10,0.0,0.0,0.0,0.0,0.0,0.0,134,1,1
1.1875,5.0,71.4375,-0.039,0.024,1.004,3.0,2.0,28.8125,94.90196078431373,10,0.0,0.0,0.0,0.0,0.0,0.0,136,1,1
0.375,6.8125,58.0625,-0.147,0.031,1.025,19.0625,-1.375,112.5625,94.90196078431373,10,0.0,0.0,0.0,0.0,0.0,0.0,138,1,1
3.1875,11.8125,17.8125,-0.066,0.044,0.9490000000000001,-8.125,41.6875,222.375,94.50980392156863,10,0.0,0.0,0.0,0.0,0.0,0.0,140,1,1
-1.0625,6.3125,345.9375,0.267,0.004,1.058,-38.5625,3.4375,84.1875,94.11764705882352,10,0.0,0.0,0.0,0.0,0.0,0.0,142,1,1
-0.5,5.8125,341.4375,0.052000000000000005,0.073,0.966,17.125,-0.625,-12.75,94.11764705882352,10,0.0,0.0,0.0,0.0,0.0,0.0,144,1,1
0.0,6.0625,342.6875,0.054,0.056,1.025,-1.5625,7.75,-0.875,94.90196078431373,10,0.0,0.0,0.0,0.0,0.0,0.0,146,1,1
-0.75,7.9375,350.25,0.189,0.042,0.977,19.6875,-19.4375,-96.5625,94.90196078431373,10,0.0,0.0,0.0,0.0,0.0,0.0,148,1,1
3.5,10.0,20.5,0.012,0.10400000000000001,1.079,1.25,-31.125,-206.1875,94.50980392156863,10,0.0,0.0,0.0,0.0,0.0,0.0,150,1,1
1.875,10.375,43.3125,-0.073,-0.019,0.9490000000000001,10.9375,-3.9375,-201.5625,94.90196078431373,10,0.0,0.0,0.0,0.0,0.0,0.0,151,1,1
9.75,9.0,63.9375,-0.365,0.08,1.004,-12.625,6.8125,-12.6875,94.90196078431373,10,0.0,0.0,0.0,0.0,0.0,0.0,153,1,1
7.8125,9.5625,60.5,-0.14100000000000001,0.122,0.984,3.75,4.0625,26.375,92.94117647058823,10,0.0,0.0,0.0,0.0,0.0,0.0,155,1,1
5.5625,11.375,51.25,-0.244,0.08600000000000001,0.999,12.5625,-29.125,85.375,94.11764705882352,10,0.0,0.0,0.0,0.0,0.0,0.0,157,1,1
-3.375,13.3125,14.625,0.019,0.022,0.754,-21.6875,43.5,253.25,94.50980392156863,10,0.0,0.0,0.0,0.0,0.0,0.0,159,1,1
-2.375,7.9375,345.625,0.242,0.058,1.098,24.625,-5.75,58.9375,94.90196078431373,10,0.0,0.0,0.0,0.0,0.0,0.0,161,1,1
0.1875,12.5,334.1875,-0.016,0.17300000000000001,0.979,17.75,70.0,80.1875,94.90196078431373,10,0.0,0.0,0.0,0.0,0.0,0.0,163,1,1
2.8125,17.5,325.875,0.043000000000000003,0.27,0.873,18.1875,13.25,-1.4375,94.90196078431373,10,0.0,0.0,0.0,0.0,0.0,0.0,165,1,1
2.6875,16.5625,327.0,-0.016,0.257,0.966,-9.0,-13.8125,-7.875,94.90196078431373,10,0.0,0.0,0.0,0.0,0.0,0.0,167,1,1
-2.5,13.375,338.9375,0.10200000000000001,0.1,1.04,-3.8125,12.6875,-87.25,94.11764705882352,10,0.0,0.0,0.0,0.0,0.0,0.0,169,1,1
0.0625,17.75,3.0,0.005,0.272,0.909,24.125,-27.6875,-120.375,94.50980392156863,10,0.0,0.0,0.0,0.0,0.0,0.0,171,1,1
0.0,16.75,11.375,-0.073,0.258,0.9580000000000001,-19.9375,-54.5,7.3125,94.90196078431373,10,0.0,0.0,0.0,0.0,0.0,0.0,173,1,1
-2.0,12.3125,7.1875,0.094,0.179,0.9560000000000001,-19.1875,-7.0625,11.0,94.50980392156863,10,0.0,0.0,0.0,0.0,0.0,0.0,175,1,1
-2.8125,7.5625,5.375,0.084,0.108,1.014,-24.1875,-30.0625,-9.875,94.90196078431373,10,0.0,0.0,0.0,0.0,0.0,0.0,177,1,1
-5.4375,5.3125,5.9375,0.061,0.074,0.982,-7.0625,-15.625,2.0,94.50980392156863,10,0.0,0.0,0.0,0.0,0.0,0.0,179,1,1
-9.5,2.8125,5.75,0.234,0.0,0.996,-22.25,15.125,-0.875,94.11764705882352,10,0.0,0.0,0.0,0.0,0.0,0.0,181,1,1
-6.75,2.375,9.25,0.133,-0.028,0.961,6.625,-5.75,-39.125,94.11764705882352,10,0.0,0.0,0.0,0.0,0.0,0.0,183,1,1
-3.3125,4.1875,15.5625,0.092,0.047,1.0,10.0625,17.25,-26.375,94.90196078431373,10,0.0,0.0,0.0,0.0,0.0,0.0,185,1,1
-3.9375,9.125,23.125,0.10200000000000001,0.083,0.927,25.1875,-10.125,-50.75,94.90196078431373,10,0.0,0.0,0.0,0.0,0.0,0.0,187,1,1
-6.5,14.0,29.875,0.027,0.213,0.916,14.625,-39.6875,-10.0,94.50980392156863,10,0.0,0.0,0.0,0.0,0.0,0.0,189,1,1
-10.125,13.0625,27.75,0.214,0.185,0.9510000000000001,-18.4375,15.0625,7.75,94.90196078431373,10,0.0,0.0,0.0,0.0,0.0,0.0,191,1,1
-8.3125,9.5625,28.3125,0.042,0.128,1.033,-10.375,42.625,2.8125,94.50980392156863,10,0.0,0.0,0.0,0.0,0.0,0.0,193,1,1
-9.6875,12.0625,25.875,0.279,0.182,0.891,13.8125,-11.375,6.625,93.72549019607843,10,0.0,0.0,0.0,0.0,0.0,0.0,195,1,1
-11.375,13.625,23.25,0.245,0.271,0.91,0.1875,5.9375,18.0625,94.90196078431373,10,0.0,0.0,0.0,0.0,0.0,0.0,197,1,1
-9.75,15.0,31.1875,0.217,0.22,1.059,-44.3125,-49.5,-45.25,94.90196078431373,10,0.0,0.0,0.0,0.0,0.0,0.0,199,1,1
-9.1875,12.125,40.5,0.196,0.065,0.9440000000000001,-7.0625,-12.125,-27.375,94.50980392156863,10,0.0,0.0,0.0,0.0,0.0,0.0,201,1,1
-5.0625,12.4375,46.6875,0.08600000000000001,0.135,0.997,-12.8125,20.3125,-38.75,94.90196078431373,10,0.0,0.0,0.0,0.0,0.0,0.0,203,1,1
1.375,11.6875,52.0,-0.034,0.216,0.966,-4.8125,0.25,-17.1875,94.90196078431373,10,0.0,0.0,0.0,0.0,0.0,0.0,205,1,1
2.0625,11.5625,52.625,-0.076,0.08,0.996,-1.375,-2.875,-6.5,94.50980392156863,10,0.0,0.0,0.0,0.0,0.0,0.0,206,1,1
5.0625,13.375,49.8125,-0.129,0.098,0.935,11.125,47.5,36.5,94.11764705882352,10,0.0,0.0,0.0,0.0,0.0,0.0,208,1,1
5.4375,13.25,44.3125,-0.08,0.145,0.996,-15.75,-1.25,50.8125,94.11764705882352,10,0.0,0.0,0.0,0.0,0.0,0.0,209,1,1
7.625,14.375,40.3125,-0.021,0.059000000000000004,1.0110000000000001,22.375,24.375,26.0625,94.50980392156863,10,0.0,0.0,0.0,0.0,0.0,0.0,210,1,1
13.0,17.875,33.5625,-0.077,0.217,0.6950000000000001,1.9375,38.9375,8.25,94.90196078431373,10,0.0,0.0,0.0,0.0,0.0,0.0,212,1,1
13.9375,19.5,33.9375,-0.145,0.496,0.74,45.6875,-4.375,-13.4375,94.50980392156863,10,0.0,0.0,0.0,0.0,0.0,0.0,213,1,1
12.6875,20.3125,35.625,-0.126,0.581,0.8150000000000001,0.4375,-31.5,-17.75,94.90196078431373,10,0.0,0.0,0.0,0.0,0.0,0.0,214,1,1
11.1875,20.25,38.4375,-0.089,0.438,0.97,23.5,-29.1875,-37.6875,94.90196078431373,10,0.0,0.0,0.0,0.0,0.0,0.0,215,1,1
6.3125,18.5,42.5,-0.113,0.494,0.919,-14.25,-11.375,-9.5,94.90196078431373,10,0.0,0.0,0.0,0.0,0.0,0.0,216,1,1
5.0,15.0,43.3125,0.044,0.231,0.74,-40.0,-52.5625,-25.4375,94.90196078431373,10,0.0,0.0,0.0,0.0,0.0,0.0,217,1,1
-7.25,9.1875,48.625,-0.106,0.023,0.846,-133.875,-112.1875,-61.25,94.50980392156863,10,0.0,0.0,0.0,0.0,0.0,0.0,218,1,1
-5.25,-0.625,51.875,-0.001,-0.098,1.185,-13.5,-47.4375,-12.3125,94.50980392156863,10,0.0,0.0,0.0,0.0,0.0,0.0,219,1,1
-5.9375,-1.8125,50.125,0.133,-0.03,0.763,-29.625,-30.75,2.5,94.11764705882352,10,0.0,0.0,0.0,0.0,0.0,0.0,220,1,1
-9.5625,-5.3125,50.0625,0.078,-0.069,0.651,-32.9375,-54.0625,0.625,94.11764705882352,10,0.0,0.0,0.0,0.0,0.0,0.0,221,1,1
-12.25,-8.5625,50.125,0.20400000000000001,-0.149,0.968,5.625,-16.4375,-1.75,94.50980392156863,10,0.0,0.0,0.0,0.0,0.0,0.0,223,1,1
-12.0625,-8.4375,48.5,0.20600000000000002,-0.151,0.9560000000000001,-1.1875,2.875,0.0,94.90196078431373,10,0.0,0.0,0.0,0.0,0.0,0.0,225,1,1
-12.0,-8.5,48.0,0.20700000000000002,-0.154,0.964,0.25,0.1875,-1.1875,94.90196078431373,10,0.0,0.0,0.0,0.0,0.0,0.0,226,1,1
-11.875,-8.5,47.375,0.081,-0.07,0.966,0.8125,7.3125,-1.75,94.90196078431373,10,0.0,0.0,0.0,0.0,0.0,0.0,227,1,1
-11.625,-8.5,45.9375,0.23500000000000001,-0.134,0.9390000000000001,1.9375,2.8125,0.375,94.90196078431373,10,0.0,0.0,0.0,0.0,0.0,0.0,229,1,1
